counterbalance_lists.group,counterbalance_lists.remaining,get_list.started,get_list.stopped,participant,session,date,expName,psychopyVersion,OS,frameRate,Instructions.started,Instructions.stopped,key_resp.keys,instr_done_touch.x,instr_done_touch.y,instr_done_touch.leftButton,instr_done_touch.midButton,instr_done_touch.rightButton,instr_done_touch.clicked_name,start_instr.thisRepN,start_instr.thisTrialN,start_instr.thisN,start_instr.thisIndex,start_instr.ran,pageN,phase,instruct_text,has_image,instruct_image,showProgress.started,showProgress.stopped,fix.started,fix.stopped,prac.started,prac.stopped,response.keys,response.corr,response.rt,response.duration,touch_resp.x,touch_resp.y,touch_resp.leftButton,touch_resp.midButton,touch_resp.rightButton,touch_resp.time,touch_resp.clicked_name,rt,corr,feedback.started,feedback.stopped,trials.thisRepN,trials.thisTrialN,trials.thisN,trials.thisIndex,trials.ran,TrialID,StimulusType,Condition,PrimeDuration,Prime,Target,corrAns,Instructions_expt.started,Instructions_expt.stopped,key_resp_3.keys,instr_done_touch_3.x,instr_done_touch_3.y,instr_done_touch_3.leftButton,instr_done_touch_3.midButton,instr_done_touch_3.rightButton,instr_done_touch_3.clicked_name,instr_experiment.thisRepN,instr_experiment.thisTrialN,instr_experiment.thisN,instr_experiment.thisIndex,instr_experiment.ran,trialID,flag,maintask.started,maintask.stopped,key_resp_2.keys,key_resp_2.corr,key_resp_2.rt,key_resp_2.duration,targ_click.x,targ_click.y,targ_click.leftButton,targ_click.midButton,targ_click.rightButton,targ_click.time,targ_click.clicked_name,ITI.started,ITI.stopped,probe.started,probe.stopped,click_probe.x,click_probe.y,click_probe.leftButton,click_probe.midButton,click_probe.rightButton,click_probe.time,click_probe.clicked_name,key_resp_probe.keys,Break.started,Break.stopped,break_done_touch.x,break_done_touch.y,break_done_touch.leftButton,break_done_touch.midButton,break_done_touch.rightButton,break_done_keyboard.keys,list3_trials.thisRepN,list3_trials.thisTrialN,list3_trials.thisN,list3_trials.thisIndex,list3_trials.ran,list_id,item_type,string,font,stim_file,key_resp_probe.rt,key_resp_probe.duration,break_done_touch.clicked_name,End.started,End.stopped
list3,,0.4772,0.4773,32377,001,2025-12-07_22h30.30.145,HW_LDT_1,2024.2.4,MacIntel,59.88023952,,,,,,,,,,,,,,,,,,,,,,,,,,,,,,,,,,,,,,,,,,,,,,,,,,,,,,,,,,,,,,,,,,,,,,,,,,,,,,,,,,,,,,,,,,,,,,,,,,,,,,,,,,,,,,,,,,,,
,,,,32377,001,2025-12-07_22h30.30.145,HW_LDT_1,2024.2.4,MacIntel,59.88023952,0.4932,1.6756,,-0.015131937,-0.419804985,1,0,0,instr_done_button,0,0,0,0,1,1,instructions,"INSTRUCTIONS
At the start of each trial, look at the plus sign  (+) in the center of the screen.  This tells you that a trial is about to begin and where to look. Second, the plus sign will disappear and a string of letters will appear. Your task is to determine if the string of letters is a word or not. If the item is a word press the M key (on keyboard)  or touch the word button (phone/tablet).  If the item is not a word,  press the  Z key (on keyboard)  or touch the nonword button (on phone/tablet). The items will be presented for a short time. 
Press the space bar or touch  continue.",0,,,,,,,,,,,,,,,,,,,,,,,,,,,,,,,,,,,,,,,,,,,,,,,,,,,,,,,,,,,,,,,,,,,,,,,,,,,,,,,,,,,,,,,,,,,,,,,,,,
,,,,32377,001,2025-12-07_22h30.30.145,HW_LDT_1,2024.2.4,MacIntel,59.88023952,1.6771,22.6751,,-0.019420736,-0.405510405,1,0,0,instr_done_button,0,1,1,1,1,2,instructions,"If your device has a keyboard, press the 'Z' key for nonwords and the 'M' key for words.





Press the space bar or touch the button below to continue.",0,keyboard-example.gif,,,,,,,,,,,,,,,,,,,,,,,,,,,,,,,,,,,,,,,,,,,,,,,,,,,,,,,,,,,,,,,,,,,,,,,,,,,,,,,,,,,,,,,,,,,,,,,,,
,,,,32377,001,2025-12-07_22h30.30.145,HW_LDT_1,2024.2.4,MacIntel,59.88023952,22.6764,24.8752,,-0.019671518,-0.405255373,1,0,0,instr_done_button,0,2,2,2,1,3,instructions,"If you are using a touchscreen only device, use the buttons on the screen. Do not use the mouse.





Press the space bar or touch the button below to continue.",0,touchscreen-example.gif,,,,,,,,,,,,,,,,,,,,,,,,,,,,,,,,,,,,,,,,,,,,,,,,,,,,,,,,,,,,,,,,,,,,,,,,,,,,,,,,,,,,,,,,,,,,,,,,,
,,,,32377,001,2025-12-07_22h30.30.145,HW_LDT_1,2024.2.4,MacIntel,59.88023952,24.8768,25.7417,,-0.020177333,-0.405255373,1,0,0,instr_done_button,0,3,3,3,1,4,instructions,"It is very important that you respond as quickly and accurately as possible, as each letter string will only be on the screen for two seconds. If you do not respond within this time, the message 'Too slow!' will be displayed and the experiment will progress to the next letter string. The first 20 trials will be practice trials and you will receive feedback on your answers. 

Press the space bar or touch the button below to start the practice trials.",0,,,,,,,,,,,,,,,,,,,,,,,,,,,,,,,,,,,,,,,,,,,,,,,,,,,,,,,,,,,,,,,,,,,,,,,,,,,,,,,,,,,,,,,,,,,,,,,,,,
,,,,32377,001,2025-12-07_22h30.30.145,HW_LDT_1,2024.2.4,MacIntel,59.88023952,,,,,,,,,,,,,,,,,,,,25.7653,25.941,25.9413,26.4418,26.4422,28.61,m,1,2.1514,,[],[],[],[],[],[],[],2.1514,1,28.6103,29.1086,0,0,0,3,1,1004,WORD,"ID",16,matrix,MATRIX,m,,,,,,,,,,,,,,,,,,,,,,,,,,,,,,,,,,,,,,,,,,,,,,,,,,,,,,,,,,,,,,,,
,,,,32377,001,2025-12-07_22h30.30.145,HW_LDT_1,2024.2.4,MacIntel,59.88023952,,,,,,,,,,,,,,,,,,,,29.11,29.3083,29.3084,29.8084,29.8094,30.9085,z,1,1.0802,,[],[],[],[],[],[],[],1.0802,1,30.9086,31.4085,0,1,1,8,1,1009,NW,"ID",33,aslert,ASLERT,z,,,,,,,,,,,,,,,,,,,,,,,,,,,,,,,,,,,,,,,,,,,,,,,,,,,,,,,,,,,,,,,,
,,,,32377,001,2025-12-07_22h30.30.145,HW_LDT_1,2024.2.4,MacIntel,59.88023952,,,,,,,,,,,,,,,,,,,,31.4101,31.6084,31.6085,32.1084,32.1094,33.0917,z,1,0.9729,,[],[],[],[],[],[],[],0.9729,1,33.0919,33.5917,0,2,2,11,1,1012,NW,"ID",16,rashet,RASHET,z,,,,,,,,,,,,,,,,,,,,,,,,,,,,,,,,,,,,,,,,,,,,,,,,,,,,,,,,,,,,,,,,
,,,,32377,001,2025-12-07_22h30.30.145,HW_LDT_1,2024.2.4,MacIntel,59.88023952,,,,,,,,,,,,,,,,,,,,33.5931,33.7918,33.7918,34.2906,34.2916,35.2573,m,0,0.9568,,[],[],[],[],[],[],[],0.9568,0,35.2581,35.7584,0,3,3,9,1,1010,NW,"ID",33,fariny,FARINY,z,,,,,,,,,,,,,,,,,,,,,,,,,,,,,,,,,,,,,,,,,,,,,,,,,,,,,,,,,,,,,,,,
,,,,32377,001,2025-12-07_22h30.30.145,HW_LDT_1,2024.2.4,MacIntel,59.88023952,,,,,,,,,,,,,,,,,,,,35.7597,35.9573,35.9574,36.4582,36.4593,37.5584,m,0,1.0786,,[],[],[],[],[],[],[],1.0786,0,37.5586,38.0584,0,4,4,13,1,1014,NW,UN,33,winfer,ROUPET,z,,,,,,,,,,,,,,,,,,,,,,,,,,,,,,,,,,,,,,,,,,,,,,,,,,,,,,,,,,,,,,,,
,,,,32377,001,2025-12-07_22h30.30.145,HW_LDT_1,2024.2.4,MacIntel,59.88023952,,,,,,,,,,,,,,,,,,,,38.0597,38.2573,38.2574,38.7573,38.7583,40.7915,z,1,2.0247,,[],[],[],[],[],[],[],2.0247,1,40.7923,41.2916,0,5,5,12,1,1013,NW,UN,33,adveil,SPRINY,z,,,,,,,,,,,,,,,,,,,,,,,,,,,,,,,,,,,,,,,,,,,,,,,,,,,,,,,,,,,,,,,,
,,,,32377,001,2025-12-07_22h30.30.145,HW_LDT_1,2024.2.4,MacIntel,59.88023952,,,,,,,,,,,,,,,,,,,,41.293,41.4916,41.4916,41.9907,41.9917,43.6919,m,0,1.6798,,[],[],[],[],[],[],[],1.6798,0,43.6928,44.1916,0,6,6,10,1,1011,NW,"ID",16,inlade,INLADE,z,,,,,,,,,,,,,,,,,,,,,,,,,,,,,,,,,,,,,,,,,,,,,,,,,,,,,,,,,,,,,,,,
,,,,32377,001,2025-12-07_22h30.30.145,HW_LDT_1,2024.2.4,MacIntel,59.88023952,,,,,,,,,,,,,,,,,,,,44.1929,44.3917,44.3917,44.8916,44.8927,45.7917,m,1,0.879,,[],[],[],[],[],[],[],0.879,1,45.7927,46.2916,0,7,7,1,1,1002,WORD,"ID",33,adjust,ADJUST,m,,,,,,,,,,,,,,,,,,,,,,,,,,,,,,,,,,,,,,,,,,,,,,,,,,,,,,,,,,,,,,,,
,,,,32377,001,2025-12-07_22h30.30.145,HW_LDT_1,2024.2.4,MacIntel,59.88023952,,,,,,,,,,,,,,,,,,,,46.293,46.4908,46.4909,46.9916,46.9927,47.8917,m,1,0.8801,,[],[],[],[],[],[],[],0.8801,1,47.8919,48.3907,0,8,8,6,1,1007,WORD,UN,16,tropic,ZOMBIE,m,,,,,,,,,,,,,,,,,,,,,,,,,,,,,,,,,,,,,,,,,,,,,,,,,,,,,,,,,,,,,,,,
,,,,32377,001,2025-12-07_22h30.30.145,HW_LDT_1,2024.2.4,MacIntel,59.88023952,,,,,,,,,,,,,,,,,,,,48.3921,48.5915,48.5917,49.0916,49.0927,49.8916,m,1,0.7884,,[],[],[],[],[],[],[],0.7884,1,49.8917,50.3916,0,9,9,7,1,1008,WORD,UN,16,hurdle,VOLUME,m,,,,,,,,,,,,,,,,,,,,,,,,,,,,,,,,,,,,,,,,,,,,,,,,,,,,,,,,,,,,,,,,
,,,,32377,001,2025-12-07_22h30.30.145,HW_LDT_1,2024.2.4,MacIntel,59.88023952,,,,,,,,,,,,,,,,,,,,50.3929,50.5916,50.5916,51.0916,51.0924,53.4415,z,1,2.3401,,[],[],[],[],[],[],[],2.3401,1,53.4416,53.9417,0,10,10,14,1,1015,NW,UN,16,miaber,THRALE,z,,,,,,,,,,,,,,,,,,,,,,,,,,,,,,,,,,,,,,,,,,,,,,,,,,,,,,,,,,,,,,,,
,,,,32377,001,2025-12-07_22h30.30.145,HW_LDT_1,2024.2.4,MacIntel,59.88023952,,,,,,,,,,,,,,,,,,,,53.943,54.1416,54.1416,54.6408,54.6416,55.4416,z,1,0.7802,,[],[],[],[],[],[],[],0.7802,1,55.4418,55.9406,0,11,11,15,1,1016,NW,UN,16,mushed,WHAISE,z,,,,,,,,,,,,,,,,,,,,,,,,,,,,,,,,,,,,,,,,,,,,,,,,,,,,,,,,,,,,,,,,
,,,,32377,001,2025-12-07_22h30.30.145,HW_LDT_1,2024.2.4,MacIntel,59.88023952,,,,,,,,,,,,,,,,,,,,55.942,56.1415,56.1415,56.6407,56.6415,57.675,m,1,1.0127,,[],[],[],[],[],[],[],1.0127,1,57.6751,58.1741,0,12,12,5,1,1006,WORD,UN,33,frenzy,OBTAIN,m,,,,,,,,,,,,,,,,,,,,,,,,,,,,,,,,,,,,,,,,,,,,,,,,,,,,,,,,,,,,,,,,
,,,,32377,001,2025-12-07_22h30.30.145,HW_LDT_1,2024.2.4,MacIntel,59.88023952,,,,,,,,,,,,,,,,,,,,58.1754,58.3749,58.3749,58.8748,58.8757,59.824,m,1,0.9309,,[],[],[],[],[],[],[],0.9309,1,59.8242,60.3239,0,13,13,2,1,1003,WORD,"ID",16,almond,ALMOND,m,,,,,,,,,,,,,,,,,,,,,,,,,,,,,,,,,,,,,,,,,,,,,,,,,,,,,,,,,,,,,,,,
,,,,32377,001,2025-12-07_22h30.30.145,HW_LDT_1,2024.2.4,MacIntel,59.88023952,,,,,,,,,,,,,,,,,,,,60.3252,60.5239,60.524,61.0248,61.0258,62.0083,m,1,0.9752,,[],[],[],[],[],[],[],0.9752,1,62.0085,62.5074,0,14,14,4,1,1005,WORD,UN,33,abound,SQUEAK,m,,,,,,,,,,,,,,,,,,,,,,,,,,,,,,,,,,,,,,,,,,,,,,,,,,,,,,,,,,,,,,,,
,,,,32377,001,2025-12-07_22h30.30.145,HW_LDT_1,2024.2.4,MacIntel,59.88023952,,,,,,,,,,,,,,,,,,,,62.5087,62.7073,62.7074,63.2082,63.2091,64.0417,m,1,0.8165,,[],[],[],[],[],[],[],0.8165,1,64.0418,64.5406,0,15,15,0,1,1001,WORD,"ID",33,utopia,UTOPIA,m,,,,,,,,,,,,,,,,,,,,,,,,,,,,,,,,,,,,,,,,,,,,,,,,,,,,,,,,,,,,,,,,
,,,,32377,001,2025-12-07_22h30.30.145,HW_LDT_1,2024.2.4,MacIntel,59.88023952,,,,,,,,,,,,,,,1,end_of_practice,"You have completed the practice trials. During the experimental trials, you will not receive feedback. On some trials you will be asked to report whether the item you just saw was in cursive or print. 
Before you begin, please ensure that you are in a comfortable and quiet location and will not be disturbed for about 15 minutes, as we cannot use your data if you do not complete all the trials. 
 When you are ready to start the experimental trials, please press space or touch the button below.",,,,,,,,,,,,,,,,,,,,,,,,,,,,,,,,,,,,64.5462,65.4252,,-0.020177333,-0.405255373,1,0,0,instr_done_button_3,0,0,0,0,1,,,,,,,,,,,,,,,,,,,,,,,,,,,,,,,,,,,,,,,,,,,,,,,,,,
,,,,32377,001,2025-12-07_22h30.30.145,HW_LDT_1,2024.2.4,MacIntel,59.88023952,,,,,,,,,,,,,,,,,,,,65.4396,65.6249,65.6251,66.1249,,,,,,,,,,,,,,1.1188,1,,,,,,,,,,,,,,m,,,,,,,,,,,,,,,1,0,66.1264,67.2587,m,1,1.1188,,[],[],[],[],[],[],[],67.2591,69.2584,69.2587,69.2612,[],[],[],[],[],[],[],,69.2613,69.2624,-0.020177333,-0.405255373,0,0,0,,0,0,0,93,1,3,word,CEREMONY,cursive,ceremony_c.png,,,,,
,,,,32377,001,2025-12-07_22h30.30.145,HW_LDT_1,2024.2.4,MacIntel,59.88023952,,,,,,,,,,,,,,,,,,,,69.263,69.4571,69.4572,69.9582,,,,,,,,,,,,,,0.7705,1,,,,,,,,,,,,,,z,,,,,,,,,,,,,,,2,1,69.9587,70.7417,z,1,0.7705,,[],[],[],[],[],[],[],70.7418,72.7415,72.7416,78.3751,[],[],[],[],[],[],[],z,78.3752,78.3753,-0.020177333,-0.405255373,0,0,0,,0,1,1,4,1,3,RL,cafigal,cursive,cafigal_c.png,5.6216,,,,
,,,,32377,001,2025-12-07_22h30.30.145,HW_LDT_1,2024.2.4,MacIntel,59.88023952,,,,,,,,,,,,,,,,,,,,78.3766,78.5748,78.5749,79.0748,,,,,,,,,,,,,,0.9805,0,,,,,,,,,,,,,,z,,,,,,,,,,,,,,,3,0,79.0754,80.0581,m,0,0.9805,,[],[],[],[],[],[],[],80.0582,82.0572,82.0573,82.0575,[],[],[],[],[],[],[],,82.0576,82.0577,-0.020177333,-0.405255373,0,0,0,,0,2,2,77,1,3,TL,vadility,cursive,vadility_c.png,,,,,
,,,,32377,001,2025-12-07_22h30.30.145,HW_LDT_1,2024.2.4,MacIntel,59.88023952,,,,,,,,,,,,,,,,,,,,82.0589,82.2582,82.2582,82.7577,,,,,,,,,,,,,,1.631,1,,,,,,,,,,,,,,z,,,,,,,,,,,,,,,4,0,82.7584,84.3914,z,1,1.631,,[],[],[],[],[],[],[],84.3915,86.3915,86.3915,86.3918,[],[],[],[],[],[],[],,86.3918,86.3919,-0.020177333,-0.405255373,0,0,0,,0,3,3,17,1,3,RL,motide,cursive,motide_c.png,,,,,
,,,,32377,001,2025-12-07_22h30.30.145,HW_LDT_1,2024.2.4,MacIntel,59.88023952,,,,,,,,,,,,,,,,,,,,86.393,86.5907,86.5907,87.0914,,,,,,,,,,,,,,2.0898,1,,,,,,,,,,,,,,m,,,,,,,,,,,,,,,5,0,87.092,89.1915,m,1,2.0898,,[],[],[],[],[],[],[],89.1915,91.1914,91.1915,91.1918,[],[],[],[],[],[],[],,91.1918,91.1919,-0.020177333,-0.405255373,0,0,0,,0,4,4,143,1,3,word,REMOVAL,cursive,removal_c.png,,,,,
,,,,32377,001,2025-12-07_22h30.30.145,HW_LDT_1,2024.2.4,MacIntel,59.88023952,,,,,,,,,,,,,,,,,,,,91.1931,91.3904,91.3905,91.8914,,,,,,,,,,,,,,1.1206,1,,,,,,,,,,,,,,m,,,,,,,,,,,,,,,6,1,91.892,93.0241,m,1,1.1206,,[],[],[],[],[],[],[],93.0242,95.0248,95.0249,97.6749,[],[],[],[],[],[],[],z,97.675,97.6753,-0.020177333,-0.405255373,0,0,0,,0,5,5,147,1,3,word,ROMANTIC,cursive,romantic_c.png,2.6475,,,,
,,,,32377,001,2025-12-07_22h30.30.145,HW_LDT_1,2024.2.4,MacIntel,59.88023952,,,,,,,,,,,,,,,,,,,,97.6763,97.8739,97.8739,98.3748,,,,,,,,,,,,,,2.6282,0,,,,,,,,,,,,,,m,,,,,,,,,,,,,,,7,1,98.3753,101.0081,z,0,2.6282,,[],[],[],[],[],[],[],101.0082,103.0081,103.0082,107.3581,[],[],[],[],[],[],[],z,107.3582,107.3584,-0.020177333,-0.405255373,0,0,0,,0,6,6,92,1,3,word,CATEGORY,cursive,category_c.png,4.338,,,,
,,,,32377,001,2025-12-07_22h30.30.145,HW_LDT_1,2024.2.4,MacIntel,59.88023952,,,,,,,,,,,,,,,,,,,,107.3596,107.558,107.558,108.058,,,,,,,,,,,,,,0.9465,0,,,,,,,,,,,,,,z,,,,,,,,,,,,,,,8,1,108.0585,109.0079,m,0,0.9465,,[],[],[],[],[],[],[],109.0081,111.0081,111.0081,112.3077,[],[],[],[],[],[],[],m,112.3078,112.3079,-0.020177333,-0.405255373,0,0,0,,0,7,7,62,1,3,TL,prodive,print,prodive_p.png,1.2988,,,,
,,,,32377,001,2025-12-07_22h30.30.145,HW_LDT_1,2024.2.4,MacIntel,59.88023952,,,,,,,,,,,,,,,,,,,,112.3089,112.508,112.5081,113.0082,,,,,,,,,,,,,,1.4631,1,,,,,,,,,,,,,,m,,,,,,,,,,,,,,,9,0,113.0086,114.4747,m,1,1.4631,,[],[],[],[],[],[],[],114.4748,116.4737,116.4738,116.474,[],[],[],[],[],[],[],,116.4741,116.4741,-0.020177333,-0.405255373,0,0,0,,0,8,8,132,1,3,word,PROPOSAL,print,proposal_p.png,,,,,
,,,,32377,001,2025-12-07_22h30.30.145,HW_LDT_1,2024.2.4,MacIntel,59.88023952,,,,,,,,,,,,,,,,,,,,116.4753,116.6747,116.6747,117.1747,,,,,,,,,,,,,,0.9473,1,,,,,,,,,,,,,,z,,,,,,,,,,,,,,,10,0,117.1752,118.1239,z,1,0.9473,,[],[],[],[],[],[],[],118.124,120.1247,120.1247,120.1249,[],[],[],[],[],[],[],,120.125,120.1251,-0.020177333,-0.405255373,0,0,0,,0,9,9,0,1,3,RL,afaneur,print,afaneur_p.png,,,,,
,,,,32377,001,2025-12-07_22h30.30.145,HW_LDT_1,2024.2.4,MacIntel,59.88023952,,,,,,,,,,,,,,,,,,,,120.1263,120.3246,120.3247,120.8248,,,,,,,,,,,,,,0.8232,1,,,,,,,,,,,,,,m,,,,,,,,,,,,,,,11,0,120.8252,121.6581,m,1,0.8232,,[],[],[],[],[],[],[],121.6582,123.658,123.6581,123.6582,[],[],[],[],[],[],[],,123.6582,123.6584,-0.020177333,-0.405255373,0,0,0,,0,10,10,146,1,3,word,RETIRE,print,retire_p.png,,,,,
,,,,32377,001,2025-12-07_22h30.30.145,HW_LDT_1,2024.2.4,MacIntel,59.88023952,,,,,,,,,,,,,,,,,,,,123.6595,123.8581,123.8581,124.357,,,,,,,,,,,,,,1.4975,0,,,,,,,,,,,,,,z,,,,,,,,,,,,,,,12,0,124.3575,125.857,m,0,1.4975,,[],[],[],[],[],[],[],125.8571,127.8579,127.8581,127.8582,[],[],[],[],[],[],[],,127.8583,127.8583,-0.020177333,-0.405255373,0,0,0,,0,11,11,39,1,3,TL,clicinal,print,clicinal_p.png,,,,,
,,,,32377,001,2025-12-07_22h30.30.145,HW_LDT_1,2024.2.4,MacIntel,59.88023952,,,,,,,,,,,,,,,,,,,,127.8594,128.0581,128.0582,128.5571,,,,,,,,,,,,,,1.9726,1,,,,,,,,,,,,,,m,,,,,,,,,,,,,,,13,0,128.5576,130.5416,m,1,1.9726,,[],[],[],[],[],[],[],130.5416,132.5414,132.5415,132.5416,[],[],[],[],[],[],[],,132.5416,132.5418,-0.020177333,-0.405255373,0,0,0,,0,12,12,136,1,3,word,RADICAL,cursive,radical_c.png,,,,,
,,,,32377,001,2025-12-07_22h30.30.145,HW_LDT_1,2024.2.4,MacIntel,59.88023952,,,,,,,,,,,,,,,,,,,,132.5429,132.7414,132.7414,133.2404,,,,,,,,,,,,,,1.2816,0,,,,,,,,,,,,,,z,,,,,,,,,,,,,,,14,0,133.2409,134.5237,m,0,1.2816,,[],[],[],[],[],[],[],134.5238,136.5237,136.5237,136.524,[],[],[],[],[],[],[],,136.524,136.5241,-0.020177333,-0.405255373,0,0,0,,0,13,13,51,1,3,TL,liretal,print,liretal_p.png,,,,,
,,,,32377,001,2025-12-07_22h30.30.145,HW_LDT_1,2024.2.4,MacIntel,59.88023952,,,,,,,,,,,,,,,,,,,,136.5252,136.7237,136.7237,137.2246,,,,,,,,,,,,,,1.1311,1,,,,,,,,,,,,,,m,,,,,,,,,,,,,,,15,0,137.2251,138.3579,m,1,1.1311,,[],[],[],[],[],[],[],138.358,140.3571,140.3571,140.3573,[],[],[],[],[],[],[],,140.3573,140.3574,-0.020177333,-0.405255373,0,0,0,,0,14,14,98,1,3,word,CRIMINAL,print,criminal_p.png,,,,,
,,,,32377,001,2025-12-07_22h30.30.145,HW_LDT_1,2024.2.4,MacIntel,59.88023952,,,,,,,,,,,,,,,,,,,,140.3586,140.558,140.5581,141.058,,,,,,,,,,,,,,2.505,1,,,,,,,,,,,,,,z,,,,,,,,,,,,,,,16,0,141.0584,143.5747,z,1,2.505,,[],[],[],[],[],[],[],143.5748,145.5747,145.5747,145.5749,[],[],[],[],[],[],[],,145.575,145.575,-0.020177333,-0.405255373,0,0,0,,0,15,15,35,1,3,TL,cateferia,print,cateferia_p.png,,,,,
,,,,32377,001,2025-12-07_22h30.30.145,HW_LDT_1,2024.2.4,MacIntel,59.88023952,,,,,,,,,,,,,,,,,,,,145.5762,145.7746,145.7746,146.2746,,,,,,,,,,,,,,1.5573,1,,,,,,,,,,,,,,m,,,,,,,,,,,,,,,17,1,146.2751,147.8415,m,1,1.5573,,[],[],[],[],[],[],[],147.8416,149.8413,149.8413,152.4414,[],[],[],[],[],[],[],z,152.4415,152.4417,-0.020177333,-0.405255373,0,0,0,,0,16,16,83,1,3,word,ANIMAL,cursive,animal_c.png,2.5878,,,,
,,,,32377,001,2025-12-07_22h30.30.145,HW_LDT_1,2024.2.4,MacIntel,59.88023952,,,,,,,,,,,,,,,,,,,,152.4429,152.6413,152.6413,153.1404,,,,,,,,,,,,,,1.1383,1,,,,,,,,,,,,,,m,,,,,,,,,,,,,,,18,0,153.1409,154.2913,m,1,1.1383,,[],[],[],[],[],[],[],154.2914,156.2903,156.2904,156.2906,[],[],[],[],[],[],[],,156.2907,156.2907,-0.020177333,-0.405255373,0,0,0,,0,17,17,97,1,3,word,COVERAGE,print,coverage_p.png,,,,,
,,,,32377,001,2025-12-07_22h30.30.145,HW_LDT_1,2024.2.4,MacIntel,59.88023952,,,,,,,,,,,,,,,,,,,,156.292,156.4904,156.4904,156.9903,,,,,,,,,,,,,,1.9373,1,,,,,,,,,,,,,,m,,,,,,,,,,,,,,,19,0,156.9909,158.9414,m,1,1.9373,,[],[],[],[],[],[],[],158.9415,160.9413,160.9414,160.9416,[],[],[],[],[],[],[],,160.9416,160.9418,-0.020177333,-0.405255373,0,0,0,,0,18,18,151,1,3,word,SPECIFIC,print,specific_p.png,,,,,
,,,,32377,001,2025-12-07_22h30.30.145,HW_LDT_1,2024.2.4,MacIntel,59.88023952,,,,,,,,,,,,,,,,,,,,160.9431,161.1404,161.1405,161.6413,,,,,,,,,,,,,,1.557,1,,,,,,,,,,,,,,z,,,,,,,,,,,,,,,20,1,161.6418,163.2079,z,1,1.557,,[],[],[],[],[],[],[],163.2081,165.207,165.207,166.908,[],[],[],[],[],[],[],m,166.9081,166.9082,-0.020177333,-0.405255373,0,0,0,,0,19,19,2,1,3,RL,betemit,print,betemit_p.png,1.6903,,,,
,,,,32377,001,2025-12-07_22h30.30.145,HW_LDT_1,2024.2.4,MacIntel,59.88023952,,,,,,,,,,,,,,,,,,,,166.9095,167.108,167.1081,167.607,,,,,,,,,,,,,,1.5887,1,,,,,,,,,,,,,,m,,,,,,,,,,,,,,,21,0,167.6075,169.207,m,1,1.5887,,[],[],[],[],[],[],[],169.2072,171.207,171.207,171.2072,[],[],[],[],[],[],[],,171.2073,171.2074,-0.020177333,-0.405255373,0,0,0,,0,20,20,101,1,3,word,DELICATE,print,delicate_p.png,,,,,
,,,,32377,001,2025-12-07_22h30.30.145,HW_LDT_1,2024.2.4,MacIntel,59.88023952,,,,,,,,,,,,,,,,,,,,171.2085,171.407,171.4071,171.9078,,,,,,,,,,,,,,1.3566,1,,,,,,,,,,,,,,m,,,,,,,,,,,,,,,22,0,171.9084,173.274,m,1,1.3566,,[],[],[],[],[],[],[],173.2741,175.2745,175.2746,175.2747,[],[],[],[],[],[],[],,175.2747,175.2749,-0.020177333,-0.405255373,0,0,0,,0,21,21,142,1,3,word,REMOTE,print,remote_p.png,,,,,
,,,,32377,001,2025-12-07_22h30.30.145,HW_LDT_1,2024.2.4,MacIntel,59.88023952,,,,,,,,,,,,,,,,,,,,175.2759,175.4745,175.4746,175.9745,,,,,,,,,,,,,,4.3199,0,,,,,,,,,,,,,,z,,,,,,,,,,,,,,,23,0,175.975,180.308,m,0,4.3199,,[],[],[],[],[],[],[],180.3081,182.3069,182.3069,182.3071,[],[],[],[],[],[],[],,182.3072,182.3073,-0.020177333,-0.405255373,0,0,0,,0,22,22,38,1,3,TL,carnidal,print,carnidal_p.png,,,,,
,,,,32377,001,2025-12-07_22h30.30.145,HW_LDT_1,2024.2.4,MacIntel,59.88023952,,,,,,,,,,,,,,,,,,,,182.3084,182.5079,182.5079,183.0078,,,,,,,,,,,,,,3.2866,1,,,,,,,,,,,,,,z,,,,,,,,,,,,,,,24,0,183.0083,186.3079,z,1,3.2866,,[],[],[],[],[],[],[],186.3081,188.3076,188.3076,188.3078,[],[],[],[],[],[],[],,188.3079,188.3079,-0.020177333,-0.405255373,0,0,0,,0,23,23,52,1,3,TL,locigal,cursive,locigal_c.png,,,,,
,,,,32377,001,2025-12-07_22h30.30.145,HW_LDT_1,2024.2.4,MacIntel,59.88023952,,,,,,,,,,,,,,,,,,,,188.3088,188.5069,188.5069,189.0069,,,,,,,,,,,,,,1.607,1,,,,,,,,,,,,,,z,,,,,,,,,,,,,,,25,0,189.0073,190.6245,z,1,1.607,,[],[],[],[],[],[],[],190.6246,192.6236,192.6236,192.6238,[],[],[],[],[],[],[],,192.6239,192.624,-0.020177333,-0.405255373,0,0,0,,0,24,24,56,1,3,TL,meromy,print,meromy_p.png,,,,,
,,,,32377,001,2025-12-07_22h30.30.145,HW_LDT_1,2024.2.4,MacIntel,59.88023952,,,,,,,,,,,,,,,,,,,,192.6251,192.8245,192.8245,193.3245,,,,,,,,,,,,,,1.1976,1,,,,,,,,,,,,,,m,,,,,,,,,,,,,,,26,0,193.3249,194.5244,m,1,1.1976,,[],[],[],[],[],[],[],194.5245,196.5236,196.5237,196.5238,[],[],[],[],[],[],[],,196.5239,196.5239,-0.020177333,-0.405255373,0,0,0,,0,25,25,133,1,3,word,PROVIDE,print,provide_p.png,,,,,
,,,,32377,001,2025-12-07_22h30.30.145,HW_LDT_1,2024.2.4,MacIntel,59.88023952,,,,,,,,,,,,,,,,,,,,196.5252,196.7244,196.7245,197.2245,,,,,,,,,,,,,,1.3813,0,,,,,,,,,,,,,,z,,,,,,,,,,,,,,,27,0,197.2249,198.6078,m,0,1.3813,,[],[],[],[],[],[],[],198.6078,200.6077,200.6078,200.6081,[],[],[],[],[],[],[],,200.6082,200.6083,-0.020177333,-0.405255373,0,0,0,,0,26,26,40,1,3,TL,condiser,print,condiser_p.png,,,,,
,,,,32377,001,2025-12-07_22h30.30.145,HW_LDT_1,2024.2.4,MacIntel,59.88023952,,,,,,,,,,,,,,,,,,,,200.6094,200.8078,200.8079,201.3069,,,,,,,,,,,,,,2.5558,1,,,,,,,,,,,,,,z,,,,,,,,,,,,,,,28,0,201.3074,203.8736,z,1,2.5558,,[],[],[],[],[],[],[],203.8738,205.8745,205.8745,205.8747,[],[],[],[],[],[],[],,205.8747,205.8749,-0.020177333,-0.405255373,0,0,0,,0,27,27,44,1,3,TL,decilate,print,decilate_p.png,,,,,
,,,,32377,001,2025-12-07_22h30.30.145,HW_LDT_1,2024.2.4,MacIntel,59.88023952,,,,,,,,,,,,,,,,,,,,205.876,206.0745,206.0746,206.5744,,,,,,,,,,,,,,2.3747,1,,,,,,,,,,,,,,z,,,,,,,,,,,,,,,29,0,206.575,208.957,z,1,2.3747,,[],[],[],[],[],[],[],208.9571,210.9578,210.9578,210.958,[],[],[],[],[],[],[],,210.9581,210.9581,-0.020177333,-0.405255373,0,0,0,,0,28,28,46,1,3,TL,distupe,print,distupe_p.png,,,,,
,,,,32377,001,2025-12-07_22h30.30.145,HW_LDT_1,2024.2.4,MacIntel,59.88023952,,,,,,,,,,,,,,,,,,,,210.9593,211.1577,211.1577,211.6577,,,,,,,,,,,,,,2.4308,1,,,,,,,,,,,,,,z,,,,,,,,,,,,,,,30,0,211.6582,214.0901,z,1,2.4308,,[],[],[],[],[],[],[],214.0902,216.0903,216.0903,216.0906,[],[],[],[],[],[],[],,216.0906,216.0907,-0.020177333,-0.405255373,0,0,0,,0,29,29,47,1,3,TL,elarobate,print,elarobate_p.png,,,,,
,,,,32377,001,2025-12-07_22h30.30.145,HW_LDT_1,2024.2.4,MacIntel,59.88023952,,,,,,,,,,,,,,,,,,,,216.0918,216.2911,216.2911,216.7911,,,,,,,,,,,,,,1.1824,1,,,,,,,,,,,,,,z,,,,,,,,,,,,,,,31,0,216.7915,217.9748,z,1,1.1824,,[],[],[],[],[],[],[],217.9748,219.9744,219.9745,219.9746,[],[],[],[],[],[],[],,219.9747,219.9748,-0.020177333,-0.405255373,0,0,0,,0,30,30,31,1,3,RL,trilude,print,trilude_p.png,,,,,
,,,,32377,001,2025-12-07_22h30.30.145,HW_LDT_1,2024.2.4,MacIntel,59.88023952,,,,,,,,,,,,,,,,,,,,219.9759,220.1744,220.1744,220.6735,,,,,,,,,,,,,,2.8228,1,,,,,,,,,,,,,,z,,,,,,,,,,,,,,,32,0,220.674,223.5069,z,1,2.8228,,[],[],[],[],[],[],[],223.507,225.5077,225.5077,225.5078,[],[],[],[],[],[],[],,225.5079,225.508,-0.020177333,-0.405255373,0,0,0,,0,31,31,30,1,3,RL,strapely,print,strapely_p.png,,,,,
,,,,32377,001,2025-12-07_22h30.30.145,HW_LDT_1,2024.2.4,MacIntel,59.88023952,,,,,,,,,,,,,,,,,,,,225.5091,225.7077,225.7078,226.2068,,,,,,,,,,,,,,4.9708,0,,,,,,,,,,,,,,m,,,,,,,,,,,,,,,33,0,226.2073,231.1911,z,0,4.9708,,[],[],[],[],[],[],[],231.1912,233.191,233.1911,233.1912,[],[],[],[],[],[],[],,233.1913,233.1914,-0.020177333,-0.405255373,0,0,0,,0,32,32,108,1,3,word,FORTUNE,cursive,fortune_c.png,,,,,
,,,,32377,001,2025-12-07_22h30.30.145,HW_LDT_1,2024.2.4,MacIntel,59.88023952,,,,,,,,,,,,,,,,,,,,233.1924,233.391,233.391,233.8909,,,,,,,,,,,,,,4.0042,0,,,,,,,,,,,,,,z,,,,,,,,,,,,,,,34,0,233.8914,237.9078,m,0,4.0042,,[],[],[],[],[],[],[],237.9078,239.9069,239.9069,239.9071,[],[],[],[],[],[],[],,239.9072,239.9073,-0.020177333,-0.405255373,0,0,0,,0,33,33,54,1,3,TL,manire,cursive,manire_c.png,,,,,
,,,,32377,001,2025-12-07_22h30.30.145,HW_LDT_1,2024.2.4,MacIntel,59.88023952,,,,,,,,,,,,,,,,,,,,239.9083,240.1068,240.1069,240.6077,,,,,,,,,,,,,,2.6156,1,,,,,,,,,,,,,,m,,,,,,,,,,,,,,,35,1,240.6082,243.2247,m,1,2.6156,,[],[],[],[],[],[],[],243.2248,245.2243,245.2243,247.0736,[],[],[],[],[],[],[],m,247.0737,247.0738,-0.020177333,-0.405255373,0,0,0,,0,34,34,113,1,3,word,LITERAL,print,literal_p.png,1.8383,,,,
,,,,32377,001,2025-12-07_22h30.30.145,HW_LDT_1,2024.2.4,MacIntel,59.88023952,,,,,,,,,,,,,,,,,,,,247.075,247.2735,247.2736,247.7742,,,,,,,,,,,,,,2.781,1,,,,,,,,,,,,,,m,,,,,,,,,,,,,,,36,0,247.7748,250.5567,m,1,2.781,,[],[],[],[],[],[],[],250.5568,252.5576,252.5577,252.5579,[],[],[],[],[],[],[],,252.558,252.558,-0.020177333,-0.405255373,0,0,0,,0,35,35,102,1,3,word,DENSITY,print,density_p.png,,,,,
,,,,32377,001,2025-12-07_22h30.30.145,HW_LDT_1,2024.2.4,MacIntel,59.88023952,,,,,,,,,,,,,,,,,,,,252.5592,252.7577,252.7577,253.2576,,,,,,,,,,,,,,3.3705,0,,,,,,,,,,,,,,m,,,,,,,,,,,,,,,37,0,253.2581,256.641,z,0,3.3705,,[],[],[],[],[],[],[],256.6411,258.6409,258.641,258.6412,[],[],[],[],[],[],[],,258.6412,258.6413,-0.020177333,-0.4046858,0,0,0,,0,36,36,114,1,3,word,LOCATE,cursive,locate_c.png,,,,,
,,,,32377,001,2025-12-07_22h30.30.145,HW_LDT_1,2024.2.4,MacIntel,59.88023952,,,,,,,,,,,,,,,,,,,,258.6426,258.841,258.8411,259.341,,,,,,,,,,,,,,2.503,1,,,,,,,,,,,,,,z,,,,,,,,,,,,,,,38,0,259.3415,261.8567,z,1,2.503,,[],[],[],[],[],[],[],261.8569,263.8576,263.8577,263.8578,[],[],[],[],[],[],[],,263.8579,263.858,-0.020177333,-0.393570627,0,0,0,,0,37,37,18,1,3,RL,onegator,print,onegator_p.png,,,,,
,,,,32377,001,2025-12-07_22h30.30.145,HW_LDT_1,2024.2.4,MacIntel,59.88023952,,,,,,,,,,,,,,,,,,,,263.8591,264.0576,264.0577,264.5577,,,,,,,,,,,,,,3.0616,1,,,,,,,,,,,,,,z,,,,,,,,,,,,,,,39,0,264.5582,267.6242,z,1,3.0616,,[],[],[],[],[],[],[],267.6243,269.6243,269.6243,269.6245,[],[],[],[],[],[],[],,269.6245,269.6246,-0.020177333,-0.393570627,0,0,0,,0,38,38,42,1,3,TL,detabe,cursive,detabe_c.png,,,,,
,,,,32377,001,2025-12-07_22h30.30.145,HW_LDT_1,2024.2.4,MacIntel,59.88023952,,,,,,,,,,,,,,,,,,,,269.6257,269.8243,269.8244,270.3234,,,,,,,,,,,,,,2.2885,1,,,,,,,,,,,,,,m,,,,,,,,,,,,,,,40,0,270.3238,272.6244,m,1,2.2885,,[],[],[],[],[],[],[],272.6246,274.6242,274.6243,274.6244,[],[],[],[],[],[],[],,274.6245,274.6246,-0.020177333,-0.393570627,0,0,0,,0,39,39,118,1,3,word,MEDICINE,print,medicine_p.png,,,,,
,,,,32377,001,2025-12-07_22h30.30.145,HW_LDT_1,2024.2.4,MacIntel,59.88023952,,,,,,,,,,,,,,,,,,,,274.6256,274.8243,274.8244,275.3242,,,,,,,,,,,,,,0.9877,1,,,,,,,,,,,,,,m,,,,,,,,,,,,,,,41,0,275.3247,276.3235,m,1,0.9877,,[],[],[],[],[],[],[],276.3237,278.3234,278.3234,278.3236,[],[],[],[],[],[],[],,278.3236,278.3237,-0.020177333,-0.393570627,0,0,0,,0,40,40,131,1,3,word,POPULAR,print,popular_p.png,,,,,
,,,,32377,001,2025-12-07_22h30.30.145,HW_LDT_1,2024.2.4,MacIntel,59.88023952,,,,,,,,,,,,,,,,,,,,278.3248,278.5241,278.5242,279.0233,,,,,,,,,,,,,,1.2053,1,,,,,,,,,,,,,,z,,,,,,,,,,,,,,,42,0,279.0239,280.2401,z,1,1.2053,,[],[],[],[],[],[],[],280.2402,282.2409,282.2409,282.2411,[],[],[],[],[],[],[],,282.2411,282.2413,-0.020177333,-0.393570627,0,0,0,,0,41,41,72,1,3,TL,senmitent,print,senmitent_p.png,,,,,
,,,,32377,001,2025-12-07_22h30.30.145,HW_LDT_1,2024.2.4,MacIntel,59.88023952,,,,,,,,,,,,,,,,,,,,282.2424,282.4408,282.4409,282.9409,,,,,,,,,,,,,,3.4472,1,,,,,,,,,,,,,,z,,,,,,,,,,,,,,,43,0,282.9414,286.3909,z,1,3.4472,,[],[],[],[],[],[],[],286.391,288.3908,288.3909,288.391,[],[],[],[],[],[],[],,288.3911,288.3912,-0.020177333,-0.393570627,0,0,0,,0,42,42,63,1,3,TL,racidal,cursive,racidal_c.png,,,,,
,,,,32377,001,2025-12-07_22h30.30.145,HW_LDT_1,2024.2.4,MacIntel,59.88023952,,,,,,,,,,,,,,,,,,,,288.3923,288.5909,288.591,289.0909,,,,,,,,,,,,,,2.1141,1,,,,,,,,,,,,,,m,,,,,,,,,,,,,,,44,0,289.0914,291.2075,m,1,2.1141,,[],[],[],[],[],[],[],291.2076,293.2076,293.2076,293.2077,[],[],[],[],[],[],[],,293.2077,293.2079,-0.020177333,-0.393570627,0,0,0,,0,43,43,95,1,3,word,COMEDY,print,comedy_p.png,,,,,
,,,,32377,001,2025-12-07_22h30.30.145,HW_LDT_1,2024.2.4,MacIntel,59.88023952,,,,,,,,,,,,,,,,,,,,293.209,293.4075,293.4076,293.9075,,,,,,,,,,,,,,2.4879,1,,,,,,,,,,,,,,m,,,,,,,,,,,,,,,45,1,293.908,296.4068,m,1,2.4879,,[],[],[],[],[],[],[],296.4068,298.4075,298.4075,299.7241,[],[],[],[],[],[],[],m,299.7242,299.7243,-0.020177333,-0.393570627,0,0,0,,0,44,44,155,1,3,word,STRATEGY,print,strategy_p.png,1.3158,,,,
,,,,32377,001,2025-12-07_22h30.30.145,HW_LDT_1,2024.2.4,MacIntel,59.88023952,,,,,,,,,,,,,,,,,,,,299.7252,299.9242,299.9242,300.4242,,,,,,,,,,,,,,1.0312,0,,,,,,,,,,,,,,m,,,,,,,,,,,,,,,46,0,300.4247,301.4576,z,0,1.0312,,[],[],[],[],[],[],[],301.4577,303.4575,303.4575,303.4577,[],[],[],[],[],[],[],,303.4578,303.4579,-0.020177333,-0.393570627,0,0,0,,0,45,45,128,1,3,word,PACIFIC,cursive,pacific_c.png,,,,,
,,,,32377,001,2025-12-07_22h30.30.145,HW_LDT_1,2024.2.4,MacIntel,59.88023952,,,,,,,,,,,,,,,,,,,,303.459,303.6574,303.6575,304.1574,,,,,,,,,,,,,,1.149,1,,,,,,,,,,,,,,m,,,,,,,,,,,,,,,47,0,304.1579,305.3078,m,1,1.149,,[],[],[],[],[],[],[],305.3079,307.3075,307.3076,307.3078,[],[],[],[],[],[],[],,307.3078,307.308,-0.020177333,-0.393570627,0,0,0,,0,46,46,125,1,3,word,OPERATOR,print,operator_p.png,,,,,
,,,,32377,001,2025-12-07_22h30.30.145,HW_LDT_1,2024.2.4,MacIntel,59.88023952,,,,,,,,,,,,,,,,,,,,307.3091,307.5075,307.5076,308.0075,,,,,,,,,,,,,,2.6726,1,,,,,,,,,,,,,,m,,,,,,,,,,,,,,,48,1,308.0079,310.6908,m,1,2.6726,,[],[],[],[],[],[],[],310.6908,312.6908,312.6908,313.8909,[],[],[],[],[],[],[],m,313.891,313.8911,-0.020177333,-0.393570627,0,0,0,,0,47,47,134,1,3,word,QUALIFY,print,qualify_p.png,1.1882,,,,
,,,,32377,001,2025-12-07_22h30.30.145,HW_LDT_1,2024.2.4,MacIntel,59.88023952,,,,,,,,,,,,,,,,,,,,313.8922,314.0908,314.0908,314.5908,,,,,,,,,,,,,,2.5985,1,,,,,,,,,,,,,,z,,,,,,,,,,,,,,,49,0,314.5913,317.1907,z,1,2.5985,,[],[],[],[],[],[],[],317.1908,319.1907,319.1908,319.191,[],[],[],[],[],[],[],,319.1911,319.1911,-0.020177333,-0.393570627,0,0,0,,0,48,48,32,1,3,TL,adacemy,print,adacemy_p.png,,,,,
,,,,32377,001,2025-12-07_22h30.30.145,HW_LDT_1,2024.2.4,MacIntel,59.88023952,,,,,,,,,,,,,,,,,,,,319.1921,319.3908,319.3908,319.8908,,,,,,,,,,,,,,2.471,1,,,,,,,,,,,,,,m,,,,,,,,,,,,,,,50,0,319.8912,322.3742,m,1,2.471,,[],[],[],[],[],[],[],322.3743,324.3741,324.3741,324.3743,[],[],[],[],[],[],[],,324.3743,324.3744,-0.020177333,-0.393570627,0,0,0,,0,49,49,148,1,3,word,SALINE,cursive,saline_c.png,,,,,
,,,,32377,001,2025-12-07_22h30.30.145,HW_LDT_1,2024.2.4,MacIntel,59.88023952,,,,,,,,,,,,,,,,,,,,324.3754,324.5741,324.5742,325.0741,,,,,,,,,,,,,,2.7207,1,,,,,,,,,,,,,,m,,,,,,,,,,,,,,,51,0,325.0746,327.8075,m,1,2.7207,,[],[],[],[],[],[],[],327.8076,329.8073,329.8074,329.8076,[],[],[],[],[],[],[],,329.8076,329.8076,-0.020177333,-0.393570627,0,0,0,,0,50,50,138,1,3,word,REFUSAL,print,refusal_p.png,,,,,
,,,,32377,001,2025-12-07_22h30.30.145,HW_LDT_1,2024.2.4,MacIntel,59.88023952,,,,,,,,,,,,,,,,,,,,329.8088,330.0074,330.0074,330.5074,,,,,,,,,,,,,,1.7875,1,,,,,,,,,,,,,,m,,,,,,,,,,,,,,,52,0,330.5079,332.3074,m,1,1.7875,,[],[],[],[],[],[],[],332.3075,334.3073,334.3074,334.3077,[],[],[],[],[],[],[],,334.3077,334.3078,-0.020177333,-0.393570627,0,0,0,,0,51,51,107,1,3,word,EVIDENT,cursive,evident_c.png,,,,,
,,,,32377,001,2025-12-07_22h30.30.145,HW_LDT_1,2024.2.4,MacIntel,59.88023952,,,,,,,,,,,,,,,,,,,,334.3088,334.5074,334.5074,335.0074,,,,,,,,,,,,,,6.2875,0,,,,,,,,,,,,,,m,,,,,,,,,,,,,,,53,0,335.0079,341.3075,z,0,6.2875,,[],[],[],[],[],[],[],341.3075,343.3069,343.3069,343.3071,[],[],[],[],[],[],[],,343.3071,343.3072,-0.020177333,-0.393570627,0,0,0,,0,52,52,109,1,3,word,GRATEFUL,cursive,grateful_c.png,,,,,
,,,,32377,001,2025-12-07_22h30.30.145,HW_LDT_1,2024.2.4,MacIntel,59.88023952,,,,,,,,,,,,,,,,,,,,343.3083,343.5074,343.5074,344.0074,,,,,,,,,,,,,,0.9218,1,,,,,,,,,,,,,,m,,,,,,,,,,,,,,,54,0,344.0078,344.9409,m,1,0.9218,,[],[],[],[],[],[],[],344.9411,346.9407,346.9407,346.9409,[],[],[],[],[],[],[],,346.9409,346.941,-0.020177333,-0.393570627,0,0,0,,0,53,53,112,1,3,word,LIBERAL,print,liberal_p.png,,,,,
,,,,32377,001,2025-12-07_22h30.30.145,HW_LDT_1,2024.2.4,MacIntel,59.88023952,,,,,,,,,,,,,,,,,,,,346.9422,347.1397,347.1397,347.6407,,,,,,,,,,,,,,0.9207,1,,,,,,,,,,,,,,z,,,,,,,,,,,,,,,55,0,347.6413,348.5731,z,1,0.9207,,[],[],[],[],[],[],[],348.5732,350.574,350.5741,350.5742,[],[],[],[],[],[],[],,350.5743,350.5744,-0.020177333,-0.393570627,0,0,0,,0,54,54,23,1,3,RL,quakity,print,quakity_p.png,,,,,
,,,,32377,001,2025-12-07_22h30.30.145,HW_LDT_1,2024.2.4,MacIntel,59.88023952,,,,,,,,,,,,,,,,,,,,350.5755,350.773,350.773,351.274,,,,,,,,,,,,,,0.9058,1,,,,,,,,,,,,,,z,,,,,,,,,,,,,,,56,1,351.2744,352.1908,z,1,0.9058,,[],[],[],[],[],[],[],352.1909,354.1906,354.1907,355.7575,[],[],[],[],[],[],[],m,355.7576,355.7576,-0.020177333,-0.393570627,0,0,0,,0,55,55,10,1,3,RL,efibor,print,efibor_p.png,1.5539,,,,
,,,,32377,001,2025-12-07_22h30.30.145,HW_LDT_1,2024.2.4,MacIntel,59.88023952,,,,,,,,,,,,,,,,,,,,355.7587,355.9573,355.9573,356.4563,,,,,,,,,,,,,,7.3489,0,,,,,,,,,,,,,,m,,,,,,,,,,,,,,,57,0,356.4568,363.8068,z,0,7.3489,,[],[],[],[],[],[],[],363.8068,365.8064,365.8064,365.8066,[],[],[],[],[],[],[],,365.8066,365.8067,-0.020177333,-0.393570627,0,0,0,,0,56,56,140,1,3,word,RELATIVE,cursive,relative_c.png,,,,,
,,,,32377,001,2025-12-07_22h30.30.145,HW_LDT_1,2024.2.4,MacIntel,59.88023952,,,,,,,,,,,,,,,,,,,,365.8078,366.0064,366.0064,366.5063,,,,,,,,,,,,,,6.9996,1,,,,,,,,,,,,,,z,,,,,,,,,,,,,,,58,0,366.5067,373.5073,z,1,6.9996,,[],[],[],[],[],[],[],373.5074,375.5072,375.5073,375.5075,[],[],[],[],[],[],[],,375.5075,375.5076,-0.020177333,-0.393570627,0,0,0,,0,57,57,1,1,3,RL,bewoted,cursive,bewoted_c.png,,,,,
,,,,32377,001,2025-12-07_22h30.30.145,HW_LDT_1,2024.2.4,MacIntel,59.88023952,,,,,,,,,,,,,,,,,,,,375.5086,375.7072,375.7073,376.2072,,,,,,,,,,,,,,1.3315,1,,,,,,,,,,,,,,m,,,,,,,,,,,,,,,59,1,376.2077,377.5402,m,1,1.3315,,[],[],[],[],[],[],[],377.5402,379.5397,379.5397,380.5405,[],[],[],[],[],[],[],m,380.5406,380.5406,-0.020177333,-0.393570627,0,0,0,,0,58,58,81,1,3,word,ADVISORY,print,advisory_p.png,0.9997,,,,
,,,,32377,001,2025-12-07_22h30.30.145,HW_LDT_1,2024.2.4,MacIntel,59.88023952,,,,,,,,,,,,,,,,,,,,380.5415,380.7396,380.7396,381.2396,,,,,,,,,,,,,,2.0984,1,,,,,,,,,,,,,,z,,,,,,,,,,,,,,,60,0,381.2401,383.3395,z,1,2.0984,,[],[],[],[],[],[],[],383.3395,385.3396,385.3397,385.3398,[],[],[],[],[],[],[],,385.3398,385.3399,-0.020177333,-0.393570627,0,0,0,,0,59,59,53,1,3,TL,marnigal,print,marnigal_p.png,,,,,
,,,,32377,001,2025-12-07_22h30.30.145,HW_LDT_1,2024.2.4,MacIntel,59.88023952,,,,,,,,,,,,,,,,,,,,385.341,385.5397,385.5397,386.0405,,,,,,,,,,,,,,2.6567,1,,,,,,,,,,,,,,m,,,,,,,,,,,,,,,61,0,386.041,388.7073,m,1,2.6567,,[],[],[],[],[],[],[],388.7074,390.7072,390.7072,390.7075,[],[],[],[],[],[],[],,390.7075,390.7075,-0.020177333,-0.393570627,0,0,0,,0,60,60,141,1,3,word,RELIGION,print,religion_p.png,,,,,
,,,,32377,001,2025-12-07_22h30.30.145,HW_LDT_1,2024.2.4,MacIntel,59.88023952,,,,,,,,,,,,,,,,,,,,390.7086,390.9062,390.9063,391.4073,,,,,,,,,,,,,,1.9145,0,,,,,,,,,,,,,,z,,,,,,,,,,,,,,,62,0,391.4078,393.3234,m,0,1.9145,,[],[],[],[],[],[],[],393.3236,395.3238,395.3239,395.3241,[],[],[],[],[],[],[],,395.3241,395.3242,-0.020177333,-0.393570627,0,0,0,,0,61,61,68,1,3,TL,revomal,cursive,revomal_c.png,,,,,
,,,,32377,001,2025-12-07_22h30.30.145,HW_LDT_1,2024.2.4,MacIntel,59.88023952,,,,,,,,,,,,,,,,,,,,395.3252,395.5239,395.524,396.0239,,,,,,,,,,,,,,2.481,1,,,,,,,,,,,,,,z,,,,,,,,,,,,,,,63,0,396.0243,398.5063,z,1,2.481,,[],[],[],[],[],[],[],398.5063,400.5062,400.5063,400.5064,[],[],[],[],[],[],[],,400.5065,400.5066,-0.020177333,-0.393570627,0,0,0,,0,62,62,25,1,3,RL,retupar,print,retupar_p.png,,,,,
,,,,32377,001,2025-12-07_22h30.30.145,HW_LDT_1,2024.2.4,MacIntel,59.88023952,,,,,,,,,,,,,,,,,,,,400.5077,400.7073,400.7073,401.2072,,,,,,,,,,,,,,5.5314,1,,,,,,,,,,,,,,m,,,,,,,,,,,,,,,64,1,401.2077,406.7404,m,1,5.5314,,[],[],[],[],[],[],[],406.7405,408.7404,408.7405,409.8739,[],[],[],[],[],[],[],z,409.874,409.8741,-0.020177333,-0.393570627,0,0,0,,0,63,63,122,1,3,word,MOBILE,cursive,mobile_c.png,1.1217,,,,
,,,,32377,001,2025-12-07_22h30.30.145,HW_LDT_1,2024.2.4,MacIntel,59.88023952,,,,,,,,,,,,,,,,,,,,409.8753,410.0739,410.0739,410.5738,,,,,,,,,,,,,,4.5709,0,,,,,,,,,,,,,,m,,,,,,,,,,,,,,,65,0,410.5743,415.1562,z,0,4.5709,,[],[],[],[],[],[],[],415.1563,417.1561,417.1562,417.1564,[],[],[],[],[],[],[],,417.1564,417.1565,-0.020177333,-0.393570627,0,0,0,,0,64,64,149,1,3,word,SENATOR,cursive,senator_c.png,,,,,
,,,,32377,001,2025-12-07_22h30.30.145,HW_LDT_1,2024.2.4,MacIntel,59.88023952,,,,,,,,,,,,,,,,,,,,417.1576,417.3571,417.3571,417.8562,,,,,,,,,,,,,,1.371,1,,,,,,,,,,,,,,z,,,,,,,,,,,,,,,66,0,417.8567,419.2406,z,1,1.371,,[],[],[],[],[],[],[],419.2408,421.2405,421.2405,421.2407,[],[],[],[],[],[],[],,421.2408,421.2408,-0.020177333,-0.393570627,0,0,0,,0,65,65,7,1,3,RL,cobeny,print,cobeny_p.png,,,,,
,,,,32377,001,2025-12-07_22h30.30.145,HW_LDT_1,2024.2.4,MacIntel,59.88023952,,,,,,,,,,,,,,,,,,,,421.242,421.4404,421.4404,421.9404,,,,,,,,,,,,,,1.2547,1,,,,,,,,,,,,,,m,,,,,,,,,,,,,,,67,0,421.9409,423.2062,m,1,1.2547,,[],[],[],[],[],[],[],423.2064,425.2071,425.2072,425.2074,[],[],[],[],[],[],[],,425.2074,425.2074,-0.020177333,-0.393570627,0,0,0,,0,66,66,111,1,3,word,INDICATE,print,indicate_p.png,,,,,
,,,,32377,001,2025-12-07_22h30.30.145,HW_LDT_1,2024.2.4,MacIntel,59.88023952,,,,,,,,,,,,,,,,,,,,425.2086,425.4071,425.4072,425.9062,,,,,,,,,,,,,,3.4985,1,,,,,,,,,,,,,,z,,,,,,,,,,,,,,,68,0,425.9067,429.4071,z,1,3.4985,,[],[],[],[],[],[],[],429.4072,431.4071,431.4072,431.4073,[],[],[],[],[],[],[],,431.4073,431.4074,-0.020177333,-0.393570627,0,0,0,,0,67,67,73,1,3,TL,speficic,print,speficic_p.png,,,,,
,,,,32377,001,2025-12-07_22h30.30.145,HW_LDT_1,2024.2.4,MacIntel,59.88023952,,,,,,,,,,,,,,,,,,,,431.4086,431.6066,431.6067,432.1071,,,,,,,,,,,,,,3.2308,1,,,,,,,,,,,,,,z,,,,,,,,,,,,,,,69,0,432.1076,435.3404,z,1,3.2308,,[],[],[],[],[],[],[],435.3405,437.3404,437.3404,437.3406,[],[],[],[],[],[],[],,437.3406,437.3407,-0.020177333,-0.393570627,0,0,0,,0,68,68,13,1,3,RL,helicage,cursive,helicage_c.png,,,,,
,,,,32377,001,2025-12-07_22h30.30.145,HW_LDT_1,2024.2.4,MacIntel,59.88023952,,,,,,,,,,,,,,,,,,,,437.3419,437.5405,437.5405,438.0404,,,,,,,,,,,,,,14.9718,1,,,,,,,,,,,,,,z,,,,,,,,,,,,,,,70,0,438.0409,453.0231,z,1,14.9718,,[],[],[],[],[],[],[],453.0232,455.0228,455.0228,455.023,[],[],[],[],[],[],[],,455.0231,455.0231,-0.020177333,-0.393570627,0,0,0,,0,69,69,49,1,3,TL,incidate,print,incidate_p.png,,,,,
,,,,32377,001,2025-12-07_22h30.30.145,HW_LDT_1,2024.2.4,MacIntel,59.88023952,,,,,,,,,,,,,,,,,,,,455.0242,455.2237,455.2237,455.7227,,,,,,,,,,,,,,3.8052,1,,,,,,,,,,,,,,z,,,,,,,,,,,,,,,71,0,455.7231,459.5406,z,1,3.8052,,[],[],[],[],[],[],[],459.5406,461.5403,461.5404,461.5405,[],[],[],[],[],[],[],,461.5406,461.5407,-0.020177333,-0.393570627,0,0,0,,0,70,70,5,1,3,RL,capefory,cursive,capefory_c.png,,,,,
,,,,32377,001,2025-12-07_22h30.30.145,HW_LDT_1,2024.2.4,MacIntel,59.88023952,,,,,,,,,,,,,,,,,,,,461.5418,461.7394,461.7395,462.2403,,,,,,,,,,,,,,2.8911,0,,,,,,,,,,,,,,m,,,,,,,,,,,,,,,72,0,462.2408,465.1404,z,0,2.8911,,[],[],[],[],[],[],[],465.1405,467.1403,467.1403,467.1405,[],[],[],[],[],[],[],,467.1405,467.1406,-0.020177333,-0.393570627,0,0,0,,0,71,71,90,1,3,word,CAPITAL,cursive,capital_c.png,,,,,
,,,,32377,001,2025-12-07_22h30.30.145,HW_LDT_1,2024.2.4,MacIntel,59.88023952,,,,,,,,,,,,,,,,,,,,467.1417,467.3394,467.3394,467.8394,,,,,,,,,,,,,,4.0989,1,,,,,,,,,,,,,,z,,,,,,,,,,,,,,,73,0,467.8398,471.9403,z,1,4.0989,,[],[],[],[],[],[],[],471.9404,473.9403,473.9404,473.9406,[],[],[],[],[],[],[],,473.9406,473.9407,-0.020177333,-0.393570627,0,0,0,,0,72,72,11,1,3,RL,ebiwent,cursive,ebiwent_c.png,,,,,
,,,,32377,001,2025-12-07_22h30.30.145,HW_LDT_1,2024.2.4,MacIntel,59.88023952,,,,,,,,,,,,,,,,,,,,473.9417,474.1394,474.1395,474.6403,,,,,,,,,,,,,,2.381,1,,,,,,,,,,,,,,z,,,,,,,,,,,,,,,74,0,474.6408,477.0237,z,1,2.381,,[],[],[],[],[],[],[],477.0237,479.0227,479.0228,479.023,[],[],[],[],[],[],[],,479.023,479.023,-0.020177333,-0.393570627,0,0,0,,0,73,73,21,1,3,RL,potugar,print,potugar_p.png,,,,,
,,,,32377,001,2025-12-07_22h30.30.145,HW_LDT_1,2024.2.4,MacIntel,59.88023952,,,,,,,,,,,,,,,,,,,,479.0241,479.2236,479.2236,479.7236,,,,,,,,,,,,,,1.8974,1,,,,,,,,,,,,,,m,,,,,,,,,,,,,,,75,0,479.724,481.6235,m,1,1.8974,,[],[],[],[],[],[],[],481.6236,483.6236,483.6237,483.6238,[],[],[],[],[],[],[],,483.6239,483.6239,-0.020177333,-0.393570627,0,0,0,,0,74,74,85,1,3,word,BENEFIT,print,benefit_p.png,,,,,
,,,,32377,001,2025-12-07_22h30.30.145,HW_LDT_1,2024.2.4,MacIntel,59.88023952,,,,,,,,,,,,,,,,,,,,483.6251,483.8227,483.8227,484.3228,,,,,,,,,,,,,,6.6488,1,,,,,,,,,,,,,,z,,,,,,,,,,,,,,,76,0,484.3232,490.9728,z,1,6.6488,,[],[],[],[],[],[],[],490.9729,492.9736,492.9737,492.9738,[],[],[],[],[],[],[],,492.9738,492.9739,-0.020177333,-0.393570627,0,0,0,,0,75,75,70,1,3,TL,remuse,cursive,remuse_c.png,,,,,
,,,,32377,001,2025-12-07_22h30.30.145,HW_LDT_1,2024.2.4,MacIntel,59.88023952,,,,,,,,,,,,,,,,,,,,492.975,493.1736,493.1736,493.6727,,,,,,,,,,,,,,3.2579,1,,,,,,,,,,,,,,z,,,,,,,,,,,,,,,77,0,493.6733,496.9404,z,1,3.2579,,[],[],[],[],[],[],[],496.9404,498.9394,498.9394,498.9395,[],[],[],[],[],[],[],,498.9395,498.9396,-0.0199223,-0.394080692,0,0,0,,0,76,76,74,1,3,TL,spemicen,print,spemicen_p.png,,,,,
,,,,32377,001,2025-12-07_22h30.30.145,HW_LDT_1,2024.2.4,MacIntel,59.88023952,,,,,,,,,,,,,,,,,,,,498.9408,499.1402,499.1403,499.6402,,,,,,,,,,,,,,8.1814,1,,,,,,,,,,,,,,z,,,,,,,,,,,,,,,78,0,499.6407,507.823,z,1,8.1814,,[],[],[],[],[],[],[],507.8231,509.8235,509.8235,509.8237,[],[],[],[],[],[],[],,509.8238,509.8238,-0.0199223,-0.394080692,0,0,0,,0,77,77,78,1,3,TL,vecolity,cursive,vecolity_c.png,,,,,
,,,,32377,001,2025-12-07_22h30.30.145,HW_LDT_1,2024.2.4,MacIntel,59.88023952,,,,,,,,,,,,,,,,,,,,509.825,510.0229,510.023,510.5236,,,,,,,,,,,,,,1.4139,1,,,,,,,,,,,,,,z,,,,,,,,,,,,,,,79,0,510.5241,511.9401,z,1,1.4139,,[],[],[],[],[],[],[],511.9402,513.9393,513.9393,513.9395,[],[],[],[],[],[],[],,513.9395,513.9397,-0.017197701,-0.393477115,0,0,0,,0,78,78,65,1,3,TL,resufal,print,resufal_p.png,,,,,
,,,,32377,001,2025-12-07_22h30.30.145,HW_LDT_1,2024.2.4,MacIntel,59.88023952,,,,,,,,,,,,,,,,,,,,513.9407,514.1393,514.1393,514.6392,,,,,,,,,,,,,,1.6231,1,,,,,,,,,,,,,,m,,,,,,,,,,,,,,,80,0,514.6398,516.2737,m,1,1.6231,,[],[],[],[],[],[],[],516.2737,518.2736,518.2737,518.2738,[],[],[],[],[],[],[],,518.2739,520.3901,-0.017197701,-0.395249592,1,0,0,,0,79,79,106,1,3,word,ELABORATE,print,elaborate_p.png,,,break_done_button,,
,,,,32377,001,2025-12-07_22h30.30.145,HW_LDT_1,2024.2.4,MacIntel,59.88023952,,,,,,,,,,,,,,,,,,,,520.3911,520.5902,520.5902,521.0903,,,,,,,,,,,,,,3.7532,1,,,,,,,,,,,,,,m,,,,,,,,,,,,,,,81,1,521.0908,524.857,m,1,3.7532,,[],[],[],[],[],[],[],524.8571,526.856,526.8561,528.256,[],[],[],[],[],[],[],z,528.2561,528.2561,-0.017197701,-0.395249592,0,0,0,,0,80,80,89,1,3,word,CAPACITY,cursive,capacity_c.png,1.391,,,,
,,,,32377,001,2025-12-07_22h30.30.145,HW_LDT_1,2024.2.4,MacIntel,59.88023952,,,,,,,,,,,,,,,,,,,,528.2571,528.4568,528.4569,528.9569,,,,,,,,,,,,,,4.4872,0,,,,,,,,,,,,,,m,,,,,,,,,,,,,,,82,0,528.9574,533.457,z,0,4.4872,,[],[],[],[],[],[],[],533.457,535.4569,535.457,535.4572,[],[],[],[],[],[],[],,535.4572,535.4573,-0.017197701,-0.395249592,0,0,0,,0,81,81,110,1,3,word,HERITAGE,cursive,heritage_c.png,,,,,
,,,,32377,001,2025-12-07_22h30.30.145,HW_LDT_1,2024.2.4,MacIntel,59.88023952,,,,,,,,,,,,,,,,,,,,535.4586,535.6569,535.6569,536.1568,,,,,,,,,,,,,,1.3729,1,,,,,,,,,,,,,,m,,,,,,,,,,,,,,,83,0,536.1573,537.5394,m,1,1.3729,,[],[],[],[],[],[],[],537.5395,539.5402,539.5402,539.5403,[],[],[],[],[],[],[],,539.5403,539.5404,-0.017197701,-0.395249592,0,0,0,,0,82,82,156,1,3,word,TRIBUTE,print,tribute_p.png,,,,,
,,,,32377,001,2025-12-07_22h30.30.145,HW_LDT_1,2024.2.4,MacIntel,59.88023952,,,,,,,,,,,,,,,,,,,,539.5415,539.7403,539.7404,540.2401,,,,,,,,,,,,,,6.7476,1,,,,,,,,,,,,,,z,,,,,,,,,,,,,,,84,0,540.2407,546.9893,z,1,6.7476,,[],[],[],[],[],[],[],546.9894,548.9893,548.9894,548.9895,[],[],[],[],[],[],[],,548.9896,548.9896,-0.017197701,-0.399661657,0,0,0,,0,83,83,27,1,3,RL,recile,print,recile_p.png,,,,,
,,,,32377,001,2025-12-07_22h30.30.145,HW_LDT_1,2024.2.4,MacIntel,59.88023952,,,,,,,,,,,,,,,,,,,,548.9907,549.1892,549.1892,549.6892,,,,,,,,,,,,,,1.3314,1,,,,,,,,,,,,,,m,,,,,,,,,,,,,,,85,0,549.6897,551.0224,m,1,1.3314,,[],[],[],[],[],[],[],551.0225,553.0234,553.0235,553.0236,[],[],[],[],[],[],[],,553.0236,553.0238,-0.017197701,-0.399661657,0,0,0,,0,84,84,84,1,3,word,BELOVED,cursive,beloved_c.png,,,,,
,,,,32377,001,2025-12-07_22h30.30.145,HW_LDT_1,2024.2.4,MacIntel,59.88023952,,,,,,,,,,,,,,,,,,,,553.0248,553.2226,553.2227,553.7234,,,,,,,,,,,,,,9.4043,1,,,,,,,,,,,,,,z,,,,,,,,,,,,,,,86,0,553.7239,563.1402,z,1,9.4043,,[],[],[],[],[],[],[],563.1403,565.1395,565.1395,565.1396,[],[],[],[],[],[],[],,565.1397,565.1398,-0.017197701,-0.399661657,0,0,0,,0,85,85,45,1,3,TL,dentisy,print,dentisy_p.png,,,,,
,,,,32377,001,2025-12-07_22h30.30.145,HW_LDT_1,2024.2.4,MacIntel,59.88023952,,,,,,,,,,,,,,,,,,,,565.1408,565.3391,565.3392,565.8399,,,,,,,,,,,,,,4.7809,1,,,,,,,,,,,,,,z,,,,,,,,,,,,,,,87,0,565.8405,570.6233,z,1,4.7809,,[],[],[],[],[],[],[],570.6234,572.6233,572.6234,572.6236,[],[],[],[],[],[],[],,572.6236,572.6237,-0.017197701,-0.399661657,0,0,0,,0,86,86,79,1,3,TL,veretan,cursive,veretan_c.png,,,,,
,,,,32377,001,2025-12-07_22h30.30.145,HW_LDT_1,2024.2.4,MacIntel,59.88023952,,,,,,,,,,,,,,,,,,,,572.6247,572.8233,572.8233,573.3234,,,,,,,,,,,,,,2.4145,1,,,,,,,,,,,,,,m,,,,,,,,,,,,,,,88,0,573.3239,575.7394,m,1,2.4145,,[],[],[],[],[],[],[],575.7394,577.7391,577.7391,577.7393,[],[],[],[],[],[],[],,577.7393,577.7394,-0.017197701,-0.399661657,0,0,0,,0,87,87,150,1,3,word,SENTIMENT,print,sentiment_p.png,,,,,
,,,,32377,001,2025-12-07_22h30.30.145,HW_LDT_1,2024.2.4,MacIntel,59.88023952,,,,,,,,,,,,,,,,,,,,577.7405,577.9401,577.9401,578.44,,,,,,,,,,,,,,0.8808,1,,,,,,,,,,,,,,z,,,,,,,,,,,,,,,89,0,578.4404,579.3232,z,1,0.8808,,[],[],[],[],[],[],[],579.3233,581.3225,581.3226,581.3227,[],[],[],[],[],[],[],,581.3228,581.3228,-0.017197701,-0.399661657,0,0,0,,0,88,88,22,1,3,RL,procogal,print,procogal_p.png,,,,,
,,,,32377,001,2025-12-07_22h30.30.145,HW_LDT_1,2024.2.4,MacIntel,59.88023952,,,,,,,,,,,,,,,,,,,,581.324,581.5233,581.5234,582.0234,,,,,,,,,,,,,,5.0471,1,,,,,,,,,,,,,,z,,,,,,,,,,,,,,,90,0,582.0239,587.0733,z,1,5.0471,,[],[],[],[],[],[],[],587.0733,589.0733,589.0733,589.0735,[],[],[],[],[],[],[],,589.0736,589.0737,-0.017197701,-0.399661657,0,0,0,,0,89,89,34,1,3,TL,aminal,cursive,aminal_c.png,,,,,
,,,,32377,001,2025-12-07_22h30.30.145,HW_LDT_1,2024.2.4,MacIntel,59.88023952,,,,,,,,,,,,,,,,,,,,589.0749,589.2733,589.2734,589.7724,,,,,,,,,,,,,,1.605,1,,,,,,,,,,,,,,m,,,,,,,,,,,,,,,91,0,589.7728,591.3901,m,1,1.605,,[],[],[],[],[],[],[],591.3902,593.3899,593.3899,593.3901,[],[],[],[],[],[],[],,593.3902,593.3903,-0.017197701,-0.399661657,0,0,0,,0,90,90,87,1,3,word,CAFETERIA,print,cafeteria_p.png,,,,,
,,,,32377,001,2025-12-07_22h30.30.145,HW_LDT_1,2024.2.4,MacIntel,59.88023952,,,,,,,,,,,,,,,,,,,,593.3914,593.5891,593.5892,594.09,,,,,,,,,,,,,,5.4198,1,,,,,,,,,,,,,,z,,,,,,,,,,,,,,,92,0,594.0905,599.5234,z,1,5.4198,,[],[],[],[],[],[],[],599.5234,601.5233,601.5233,601.5235,[],[],[],[],[],[],[],,601.5236,601.5236,-0.017197701,-0.399661657,0,0,0,,0,91,91,66,1,3,TL,retalive,cursive,retalive_c.png,,,,,
,,,,32377,001,2025-12-07_22h30.30.145,HW_LDT_1,2024.2.4,MacIntel,59.88023952,,,,,,,,,,,,,,,,,,,,601.5248,601.7233,601.7233,602.2233,,,,,,,,,,,,,,1.698,1,,,,,,,,,,,,,,z,,,,,,,,,,,,,,,93,0,602.2237,603.9232,z,1,1.698,,[],[],[],[],[],[],[],603.9232,605.9234,605.9234,605.9236,[],[],[],[],[],[],[],,605.9236,605.9237,-0.017197701,-0.399661657,0,0,0,,0,92,92,26,1,3,RL,repifion,print,repifion_p.png,,,,,
,,,,32377,001,2025-12-07_22h30.30.145,HW_LDT_1,2024.2.4,MacIntel,59.88023952,,,,,,,,,,,,,,,,,,,,605.9248,606.1233,606.1233,606.6224,,,,,,,,,,,,,,1.0983,1,,,,,,,,,,,,,,m,,,,,,,,,,,,,,,94,1,606.6228,607.7225,m,1,1.0983,,[],[],[],[],[],[],[],607.7226,609.7232,609.7233,611.0064,[],[],[],[],[],[],[],m,611.0065,611.0066,-0.017197701,-0.399661657,0,0,0,,0,93,93,139,1,3,word,REGULAR,print,regular_p.png,1.2757,,,,
,,,,32377,001,2025-12-07_22h30.30.145,HW_LDT_1,2024.2.4,MacIntel,59.88023952,,,,,,,,,,,,,,,,,,,,611.0078,611.2066,611.2067,611.7066,,,,,,,,,,,,,,9.5811,1,,,,,,,,,,,,,,z,,,,,,,,,,,,,,,95,0,611.7071,621.2897,z,1,9.5811,,[],[],[],[],[],[],[],621.2898,623.289,623.2891,623.2893,[],[],[],[],[],[],[],,623.2894,623.2895,-0.017197701,-0.399661657,0,0,0,,0,94,94,48,1,3,TL,grafetul,cursive,grafetul_c.png,,,,,
,,,,32377,001,2025-12-07_22h30.30.145,HW_LDT_1,2024.2.4,MacIntel,59.88023952,,,,,,,,,,,,,,,,,,,,623.2907,623.4899,623.4899,623.989,,,,,,,,,,,,,,3.3048,1,,,,,,,,,,,,,,m,,,,,,,,,,,,,,,96,0,623.9895,627.3066,m,1,3.3048,,[],[],[],[],[],[],[],627.3067,629.3065,629.3066,629.3067,[],[],[],[],[],[],[],,629.3067,629.3068,-0.017197701,-0.399661657,0,0,0,,0,95,95,135,1,3,word,QUALITY,print,quality_p.png,,,,,
,,,,32377,001,2025-12-07_22h30.30.145,HW_LDT_1,2024.2.4,MacIntel,59.88023952,,,,,,,,,,,,,,,,,,,,629.3078,629.5064,629.5066,630.0065,,,,,,,,,,,,,,2.3478,1,,,,,,,,,,,,,,m,,,,,,,,,,,,,,,97,0,630.0069,632.3556,m,1,2.3478,,[],[],[],[],[],[],[],632.3557,634.3556,634.3557,634.3559,[],[],[],[],[],[],[],,634.3559,634.356,-0.017197701,-0.399661657,0,0,0,,0,96,96,91,1,3,word,CARDINAL,print,cardinal_p.png,,,,,
,,,,32377,001,2025-12-07_22h30.30.145,HW_LDT_1,2024.2.4,MacIntel,59.88023952,,,,,,,,,,,,,,,,,,,,634.3571,634.5565,634.5566,635.0566,,,,,,,,,,,,,,1.3989,1,,,,,,,,,,,,,,z,,,,,,,,,,,,,,,98,0,635.057,636.4569,z,1,1.3989,,[],[],[],[],[],[],[],636.457,638.4565,638.4565,638.4567,[],[],[],[],[],[],[],,638.4568,638.4568,-0.017197701,-0.399661657,0,0,0,,0,97,97,59,1,3,TL,paficic,cursive,paficic_c.png,,,,,
,,,,32377,001,2025-12-07_22h30.30.145,HW_LDT_1,2024.2.4,MacIntel,59.88023952,,,,,,,,,,,,,,,,,,,,638.4579,638.6556,638.6556,639.1565,,,,,,,,,,,,,,6.022,1,,,,,,,,,,,,,,z,,,,,,,,,,,,,,,99,0,639.157,645.189,z,1,6.022,,[],[],[],[],[],[],[],645.1891,647.1898,647.1898,647.19,[],[],[],[],[],[],[],,647.19,647.1901,-0.017197701,-0.399661657,0,0,0,,0,98,98,71,1,3,TL,sanile,cursive,sanile_c.png,,,,,
,,,,32377,001,2025-12-07_22h30.30.145,HW_LDT_1,2024.2.4,MacIntel,59.88023952,,,,,,,,,,,,,,,,,,,,647.1913,647.389,647.389,647.8889,,,,,,,,,,,,,,1.4485,1,,,,,,,,,,,,,,m,,,,,,,,,,,,,,,100,1,647.8894,649.3397,m,1,1.4485,,[],[],[],[],[],[],[],649.3398,651.3398,651.3398,653.6389,[],[],[],[],[],[],[],z,653.639,653.6392,-0.017197701,-0.399661657,0,0,0,,0,99,99,86,1,3,word,BESIDE,cursive,beside_c.png,2.288,,,,
,,,,32377,001,2025-12-07_22h30.30.145,HW_LDT_1,2024.2.4,MacIntel,59.88023952,,,,,,,,,,,,,,,,,,,,653.6401,653.8398,653.8398,654.3398,,,,,,,,,,,,,,5.6716,0,,,,,,,,,,,,,,m,,,,,,,,,,,,,,,101,0,654.3403,660.0232,z,0,5.6716,,[],[],[],[],[],[],[],660.0233,662.0232,662.0232,662.0234,[],[],[],[],[],[],[],,662.0234,662.0234,-0.017197701,-0.399661657,0,0,0,,0,100,100,154,1,3,word,STORAGE,cursive,storage_c.png,,,,,
,,,,32377,001,2025-12-07_22h30.30.145,HW_LDT_1,2024.2.4,MacIntel,59.88023952,,,,,,,,,,,,,,,,,,,,662.0245,662.2223,662.2223,662.7231,,,,,,,,,,,,,,4.2413,1,,,,,,,,,,,,,,z,,,,,,,,,,,,,,,102,0,662.7236,666.9732,z,1,4.2413,,[],[],[],[],[],[],[],666.9733,668.9731,668.9731,668.9733,[],[],[],[],[],[],[],,668.9733,668.9734,-0.017197701,-0.399661657,0,0,0,,0,101,101,20,1,3,RL,orimipal,cursive,orimipal_c.png,,,,,
,,,,32377,001,2025-12-07_22h30.30.145,HW_LDT_1,2024.2.4,MacIntel,59.88023952,,,,,,,,,,,,,,,,,,,,668.9744,669.1731,669.1731,669.6731,,,,,,,,,,,,,,2.6813,1,,,,,,,,,,,,,,z,,,,,,,,,,,,,,,103,1,669.6736,672.3564,z,1,2.6813,,[],[],[],[],[],[],[],672.3564,674.3563,674.3564,676.2233,[],[],[],[],[],[],[],z,676.2233,676.2235,-0.017197701,-0.399661657,0,0,0,,0,102,102,29,1,3,RL,selamor,cursive,selamor_c.png,1.855,,,,
,,,,32377,001,2025-12-07_22h30.30.145,HW_LDT_1,2024.2.4,MacIntel,59.88023952,,,,,,,,,,,,,,,,,,,,676.2246,676.4231,676.4231,676.923,,,,,,,,,,,,,,4.3559,0,,,,,,,,,,,,,,z,,,,,,,,,,,,,,,104,0,676.9235,681.2898,m,0,4.3559,,[],[],[],[],[],[],[],681.2899,683.2897,683.2897,683.2899,[],[],[],[],[],[],[],,683.29,683.29,-0.017197701,-0.399661657,0,0,0,,0,103,103,75,1,3,TL,sloten,cursive,sloten_c.png,,,,,
,,,,32377,001,2025-12-07_22h30.30.145,HW_LDT_1,2024.2.4,MacIntel,59.88023952,,,,,,,,,,,,,,,,,,,,683.2911,683.4897,683.4897,683.9896,,,,,,,,,,,,,,2.5542,1,,,,,,,,,,,,,,z,,,,,,,,,,,,,,,105,0,683.9901,686.5564,z,1,2.5542,,[],[],[],[],[],[],[],686.5565,688.5564,688.5564,688.5565,[],[],[],[],[],[],[],,688.5566,688.5567,-0.017197701,-0.399661657,0,0,0,,0,104,104,69,1,3,TL,redisent,cursive,redisent_c.png,,,,,
,,,,32377,001,2025-12-07_22h30.30.145,HW_LDT_1,2024.2.4,MacIntel,59.88023952,,,,,,,,,,,,,,,,,,,,688.5577,688.7563,688.7564,689.2563,,,,,,,,,,,,,,2.6991,1,,,,,,,,,,,,,,m,,,,,,,,,,,,,,,106,0,689.2568,691.9569,m,1,2.6991,,[],[],[],[],[],[],[],691.957,693.9564,693.9564,693.9566,[],[],[],[],[],[],[],,693.9566,693.9567,-0.017197701,-0.399661657,0,0,0,,0,105,105,100,1,3,word,DECADE,cursive,decade_c.png,,,,,
,,,,32377,001,2025-12-07_22h30.30.145,HW_LDT_1,2024.2.4,MacIntel,59.88023952,,,,,,,,,,,,,,,,,,,,693.9578,694.1563,694.1564,694.6563,,,,,,,,,,,,,,5.5567,0,,,,,,,,,,,,,,m,,,,,,,,,,,,,,,107,0,694.6568,700.2231,z,0,5.5567,,[],[],[],[],[],[],[],700.2232,702.223,702.223,702.2232,[],[],[],[],[],[],[],,702.2233,702.2233,-0.017197701,-0.399661657,0,0,0,,0,106,106,117,1,3,word,MARINE,cursive,marine_c.png,,,,,
,,,,32377,001,2025-12-07_22h30.30.145,HW_LDT_1,2024.2.4,MacIntel,59.88023952,,,,,,,,,,,,,,,,,,,,702.2245,702.423,702.4231,702.923,,,,,,,,,,,,,,1.7304,1,,,,,,,,,,,,,,m,,,,,,,,,,,,,,,108,0,702.9236,704.6554,m,1,1.7304,,[],[],[],[],[],[],[],704.6555,706.6562,706.6564,706.6566,[],[],[],[],[],[],[],,706.6566,706.6566,-0.017197701,-0.399661657,0,0,0,,0,107,107,115,1,3,word,LOGICAL,cursive,logical_c.png,,,,,
,,,,32377,001,2025-12-07_22h30.30.145,HW_LDT_1,2024.2.4,MacIntel,59.88023952,,,,,,,,,,,,,,,,,,,,706.6579,706.8564,706.8565,707.3563,,,,,,,,,,,,,,1.7476,1,,,,,,,,,,,,,,z,,,,,,,,,,,,,,,109,0,707.3568,709.1062,z,1,1.7476,,[],[],[],[],[],[],[],709.1063,711.1062,711.1062,711.1065,[],[],[],[],[],[],[],,711.1065,711.1066,-0.017197701,-0.399661657,0,0,0,,0,108,108,15,1,3,RL,mifikary,cursive,mifikary_c.png,,,,,
,,,,32377,001,2025-12-07_22h30.30.145,HW_LDT_1,2024.2.4,MacIntel,59.88023952,,,,,,,,,,,,,,,,,,,,711.1077,711.3063,711.3063,711.8064,,,,,,,,,,,,,,2.0314,1,,,,,,,,,,,,,,m,,,,,,,,,,,,,,,110,0,711.8068,713.8396,m,1,2.0314,,[],[],[],[],[],[],[],713.8397,715.8396,715.8396,715.8398,[],[],[],[],[],[],[],,715.8398,715.84,-0.017197701,-0.399661657,0,0,0,,0,109,109,80,1,3,word,ACADEMY,print,academy_p.png,,,,,
,,,,32377,001,2025-12-07_22h30.30.145,HW_LDT_1,2024.2.4,MacIntel,59.88023952,,,,,,,,,,,,,,,,,,,,715.8411,716.0396,716.0397,716.5396,,,,,,,,,,,,,,1.4639,1,,,,,,,,,,,,,,m,,,,,,,,,,,,,,,111,1,716.5401,718.0053,m,1,1.4639,,[],[],[],[],[],[],[],718.0054,720.0062,720.0063,721.2556,[],[],[],[],[],[],[],m,721.2557,721.2558,-0.017197701,-0.399661657,0,0,0,,0,110,110,104,1,3,word,DOMINANT,print,dominant_p.png,1.2382,,,,
,,,,32377,001,2025-12-07_22h30.30.145,HW_LDT_1,2024.2.4,MacIntel,59.88023952,,,,,,,,,,,,,,,,,,,,721.2573,721.4563,721.4564,721.9562,,,,,,,,,,,,,,2.5648,1,,,,,,,,,,,,,,m,,,,,,,,,,,,,,,112,0,721.9567,724.5229,m,1,2.5648,,[],[],[],[],[],[],[],724.5229,726.5229,726.5229,726.5231,[],[],[],[],[],[],[],,726.5231,726.5232,-0.017197701,-0.399661657,0,0,0,,0,111,111,88,1,3,word,CAMERA,cursive,camera_c.png,,,,,
,,,,32377,001,2025-12-07_22h30.30.145,HW_LDT_1,2024.2.4,MacIntel,59.88023952,,,,,,,,,,,,,,,,,,,,726.5243,726.7229,726.723,727.2229,,,,,,,,,,,,,,7.1228,1,,,,,,,,,,,,,,m,,,,,,,,,,,,,,,113,0,727.2234,734.3562,m,1,7.1228,,[],[],[],[],[],[],[],734.3563,736.3562,736.3562,736.3565,[],[],[],[],[],[],[],,736.3566,736.3568,-0.017197701,-0.399661657,0,0,0,,0,112,112,121,1,3,word,MISTAKE,cursive,mistake_c.png,,,,,
,,,,32377,001,2025-12-07_22h30.30.145,HW_LDT_1,2024.2.4,MacIntel,59.88023952,,,,,,,,,,,,,,,,,,,,736.3578,736.5562,736.5562,737.0564,,,,,,,,,,,,,,2.1479,1,,,,,,,,,,,,,,m,,,,,,,,,,,,,,,114,0,737.0569,739.2057,m,1,2.1479,,[],[],[],[],[],[],[],739.2058,741.2062,741.2062,741.2065,[],[],[],[],[],[],[],,741.2065,741.2066,-0.017197701,-0.399661657,0,0,0,,0,113,113,82,1,3,word,AMATEUR,print,amateur_p.png,,,,,
,,,,32377,001,2025-12-07_22h30.30.145,HW_LDT_1,2024.2.4,MacIntel,59.88023952,,,,,,,,,,,,,,,,,,,,741.2076,741.4062,741.4062,741.9062,,,,,,,,,,,,,,4.931,1,,,,,,,,,,,,,,z,,,,,,,,,,,,,,,115,0,741.9067,746.8395,z,1,4.931,,[],[],[],[],[],[],[],746.8395,748.8394,748.8395,748.8397,[],[],[],[],[],[],[],,748.8397,748.8399,-0.017197701,-0.399661657,0,0,0,,0,114,114,12,1,3,RL,formuke,cursive,formuke_c.png,,,,,
,,,,32377,001,2025-12-07_22h30.30.145,HW_LDT_1,2024.2.4,MacIntel,59.88023952,,,,,,,,,,,,,,,,,,,,748.841,749.0394,749.0396,749.5385,,,,,,,,,,,,,,2.3647,1,,,,,,,,,,,,,,m,,,,,,,,,,,,,,,116,0,749.539,751.9062,m,1,2.3647,,[],[],[],[],[],[],[],751.9062,753.9061,753.9062,753.9064,[],[],[],[],[],[],[],,753.9065,753.9065,-0.017197701,-0.399661657,0,0,0,,0,115,115,152,1,3,word,SPECIMEN,print,specimen_p.png,,,,,
,,,,32377,001,2025-12-07_22h30.30.145,HW_LDT_1,2024.2.4,MacIntel,59.88023952,,,,,,,,,,,,,,,,,,,,753.9075,754.1062,754.1062,754.6052,,,,,,,,,,,,,,2.2395,0,,,,,,,,,,,,,,m,,,,,,,,,,,,,,,117,0,754.6057,756.8563,z,0,2.2395,,[],[],[],[],[],[],[],756.8564,758.8563,758.8563,758.8565,[],[],[],[],[],[],[],,758.8566,758.8567,-0.017197701,-0.399661657,0,0,0,,0,116,116,159,1,3,word,VETERAN,cursive,veteran_c.png,,,,,
,,,,32377,001,2025-12-07_22h30.30.145,HW_LDT_1,2024.2.4,MacIntel,59.88023952,,,,,,,,,,,,,,,,,,,,758.8578,759.0552,759.0553,759.5552,,,,,,,,,,,,,,1.1795,1,,,,,,,,,,,,,,m,,,,,,,,,,,,,,,118,0,759.5556,760.7385,m,1,1.1795,,[],[],[],[],[],[],[],760.7386,762.7395,762.7395,762.7398,[],[],[],[],[],[],[],,762.7398,762.7399,-0.017197701,-0.399661657,0,0,0,,0,117,117,119,1,3,word,MEMORY,print,memory_p.png,,,,,
,,,,32377,001,2025-12-07_22h30.30.145,HW_LDT_1,2024.2.4,MacIntel,59.88023952,,,,,,,,,,,,,,,,,,,,762.741,762.9385,762.9386,763.4395,,,,,,,,,,,,,,1.7406,1,,,,,,,,,,,,,,m,,,,,,,,,,,,,,,119,0,763.44,765.1895,m,1,1.7406,,[],[],[],[],[],[],[],765.1896,767.1895,767.1895,767.1896,[],[],[],[],[],[],[],,767.1897,767.1897,-0.017197701,-0.399661657,0,0,0,,0,118,118,96,1,3,word,CONSIDER,print,consider_p.png,,,,,
,,,,32377,001,2025-12-07_22h30.30.145,HW_LDT_1,2024.2.4,MacIntel,59.88023952,,,,,,,,,,,,,,,,,,,,767.1908,767.3895,767.3895,767.8885,,,,,,,,,,,,,,3.1,1,,,,,,,,,,,,,,z,,,,,,,,,,,,,,,120,1,767.889,770.99,z,1,3.1,,[],[],[],[],[],[],[],770.9902,772.9885,772.9885,774.4893,[],[],[],[],[],[],[],z,774.4894,774.4895,-0.017197701,-0.399661657,0,0,0,,0,119,119,16,1,3,RL,mishafe,cursive,mishafe_c.png,1.4971,,,,
,,,,32377,001,2025-12-07_22h30.30.145,HW_LDT_1,2024.2.4,MacIntel,59.88023952,,,,,,,,,,,,,,,,,,,,774.4904,774.6885,774.6886,775.1894,,,,,,,,,,,,,,1.5886,1,,,,,,,,,,,,,,m,,,,,,,,,,,,,,,121,0,775.1899,776.7897,m,1,1.5886,,[],[],[],[],[],[],[],776.7897,778.7895,778.7895,778.7897,[],[],[],[],[],[],[],,778.7897,778.7898,-0.017197701,-0.399661657,0,0,0,,0,120,120,158,1,3,word,VELOCITY,cursive,velocity_c.png,,,,,
,,,,32377,001,2025-12-07_22h30.30.145,HW_LDT_1,2024.2.4,MacIntel,59.88023952,,,,,,,,,,,,,,,,,,,,778.791,778.9894,778.9894,779.4894,,,,,,,,,,,,,,1.1374,1,,,,,,,,,,,,,,m,,,,,,,,,,,,,,,122,0,779.4899,780.6396,m,1,1.1374,,[],[],[],[],[],[],[],780.6397,782.6395,782.6395,782.6397,[],[],[],[],[],[],[],,782.6397,782.6398,-0.017197701,-0.399661657,0,0,0,,0,121,121,105,1,3,word,EDITOR,print,editor_p.png,,,,,
,,,,32377,001,2025-12-07_22h30.30.145,HW_LDT_1,2024.2.4,MacIntel,59.88023952,,,,,,,,,,,,,,,,,,,,782.6409,782.8395,782.8395,783.3385,,,,,,,,,,,,,,1.5978,1,,,,,,,,,,,,,,z,,,,,,,,,,,,,,,123,0,783.339,784.9384,z,1,1.5978,,[],[],[],[],[],[],[],784.9384,786.9394,786.9395,786.9397,[],[],[],[],[],[],[],,786.9398,786.9398,-0.017197701,-0.399661657,0,0,0,,0,122,122,43,1,3,TL,dedace,cursive,dedace_c.png,,,,,
,,,,32377,001,2025-12-07_22h30.30.145,HW_LDT_1,2024.2.4,MacIntel,59.88023952,,,,,,,,,,,,,,,,,,,,786.9409,787.1394,787.1394,787.6395,,,,,,,,,,,,,,1.4745,1,,,,,,,,,,,,,,z,,,,,,,,,,,,,,,124,0,787.64,789.1228,z,1,1.4745,,[],[],[],[],[],[],[],789.1228,791.1227,791.1229,791.123,[],[],[],[],[],[],[],,791.123,791.1231,-0.017197701,-0.399661657,0,0,0,,0,123,123,60,1,3,TL,panert,print,panert_p.png,,,,,
,,,,32377,001,2025-12-07_22h30.30.145,HW_LDT_1,2024.2.4,MacIntel,59.88023952,,,,,,,,,,,,,,,,,,,,791.1242,791.3227,791.3228,791.8228,,,,,,,,,,,,,,3.088,1,,,,,,,,,,,,,,z,,,,,,,,,,,,,,,125,0,791.8233,794.9229,z,1,3.088,,[],[],[],[],[],[],[],794.9229,796.9227,796.9228,796.9229,[],[],[],[],[],[],[],,796.923,796.9231,-0.017197701,-0.399410875,0,0,0,,0,124,124,76,1,3,TL,stogare,cursive,stogare_c.png,,,,,
,,,,32377,001,2025-12-07_22h30.30.145,HW_LDT_1,2024.2.4,MacIntel,59.88023952,,,,,,,,,,,,,,,,,,,,796.9243,797.1228,797.1228,797.6218,,,,,,,,,,,,,,2.7823,1,,,,,,,,,,,,,,m,,,,,,,,,,,,,,,126,0,797.6225,800.406,m,1,2.7823,,[],[],[],[],[],[],[],800.4061,802.4061,802.4061,802.4062,[],[],[],[],[],[],[],,802.4064,802.4064,-0.017197701,-0.399410875,0,0,0,,0,125,125,126,1,3,word,OPTIMAL,cursive,optimal_c.png,,,,,
,,,,32377,001,2025-12-07_22h30.30.145,HW_LDT_1,2024.2.4,MacIntel,59.88023952,,,,,,,,,,,,,,,,,,,,802.4076,802.6061,802.6062,803.1051,,,,,,,,,,,,,,0.9817,1,,,,,,,,,,,,,,z,,,,,,,,,,,,,,,127,1,803.1056,804.0892,z,1,0.9817,,[],[],[],[],[],[],[],804.0894,806.0894,806.0894,807.3718,[],[],[],[],[],[],[],z,807.3719,807.372,-0.017197701,-0.399410875,0,0,0,,0,126,126,8,1,3,RL,cocewage,print,cocewage_p.png,1.2755,,,,
,,,,32377,001,2025-12-07_22h30.30.145,HW_LDT_1,2024.2.4,MacIntel,59.88023952,,,,,,,,,,,,,,,,,,,,807.3732,807.5727,807.5727,808.0727,,,,,,,,,,,,,,5.2146,1,,,,,,,,,,,,,,z,,,,,,,,,,,,,,,128,0,808.0732,813.2886,z,1,5.2146,,[],[],[],[],[],[],[],813.2886,815.2894,815.2894,815.2896,[],[],[],[],[],[],[],,815.2897,815.2898,-0.017197701,-0.399410875,0,0,0,,0,127,127,33,1,3,TL,adsivory,print,adsivory_p.png,,,,,
,,,,32377,001,2025-12-07_22h30.30.145,HW_LDT_1,2024.2.4,MacIntel,59.88023952,,,,,,,,,,,,,,,,,,,,815.2908,815.4884,815.4884,815.9893,,,,,,,,,,,,,,2.1309,0,,,,,,,,,,,,,,z,,,,,,,,,,,,,,,129,0,815.9898,818.1216,m,0,2.1309,,[],[],[],[],[],[],[],818.1217,820.1226,820.1227,820.1228,[],[],[],[],[],[],[],,820.1228,820.123,-0.017197701,-0.399410875,0,0,0,,0,128,128,58,1,3,TL,nuremical,print,nuremical_p.png,,,,,
,,,,32377,001,2025-12-07_22h30.30.145,HW_LDT_1,2024.2.4,MacIntel,59.88023952,,,,,,,,,,,,,,,,,,,,820.124,820.3217,820.3217,820.8226,,,,,,,,,,,,,,3.2873,1,,,,,,,,,,,,,,m,,,,,,,,,,,,,,,130,0,820.823,824.1227,m,1,3.2873,,[],[],[],[],[],[],[],824.1228,826.1217,826.1217,826.1218,[],[],[],[],[],[],[],,826.1219,826.122,-0.017197701,-0.399410875,0,0,0,,0,129,129,144,1,3,word,RESIDENT,cursive,resident_c.png,,,,,
,,,,32377,001,2025-12-07_22h30.30.145,HW_LDT_1,2024.2.4,MacIntel,59.88023952,,,,,,,,,,,,,,,,,,,,826.1231,826.3216,826.3218,826.8226,,,,,,,,,,,,,,3.7237,1,,,,,,,,,,,,,,m,,,,,,,,,,,,,,,131,0,826.8231,830.5563,m,1,3.7237,,[],[],[],[],[],[],[],830.5563,832.5559,832.556,832.5562,[],[],[],[],[],[],[],,832.5562,832.5563,-0.01773327,-0.400252482,0,0,0,,0,130,130,129,1,3,word,PARENT,print,parent_p.png,,,,,
,,,,32377,001,2025-12-07_22h30.30.145,HW_LDT_1,2024.2.4,MacIntel,59.88023952,,,,,,,,,,,,,,,,,,,,832.5574,832.7559,832.756,833.255,,,,,,,,,,,,,,1.2322,1,,,,,,,,,,,,,,z,,,,,,,,,,,,,,,132,0,833.2556,834.4892,z,1,1.2322,,[],[],[],[],[],[],[],834.4893,836.4893,836.4893,836.4894,[],[],[],[],[],[],[],,836.4895,836.4896,-0.01773327,-0.400252482,0,0,0,,0,131,131,50,1,3,TL,lirebal,print,lirebal_p.png,,,,,
,,,,32377,001,2025-12-07_22h30.30.145,HW_LDT_1,2024.2.4,MacIntel,59.88023952,,,,,,,,,,,,,,,,,,,,836.4907,836.6893,836.6894,837.1892,,,,,,,,,,,,,,2.0073,1,,,,,,,,,,,,,,z,,,,,,,,,,,,,,,133,0,837.1896,839.205,z,1,2.0073,,[],[],[],[],[],[],[],839.2051,841.2058,841.2059,841.206,[],[],[],[],[],[],[],,841.2061,841.2061,-0.01773327,-0.400252482,0,0,0,,0,132,132,55,1,3,TL,mecidine,print,mecidine_p.png,,,,,
,,,,32377,001,2025-12-07_22h30.30.145,HW_LDT_1,2024.2.4,MacIntel,59.88023952,,,,,,,,,,,,,,,,,,,,841.2072,841.405,841.405,841.9059,,,,,,,,,,,,,,3.7982,1,,,,,,,,,,,,,,z,,,,,,,,,,,,,,,134,0,841.9063,845.7059,z,1,3.7982,,[],[],[],[],[],[],[],845.7059,847.7058,847.7059,847.706,[],[],[],[],[],[],[],,847.706,847.7061,-0.01773327,-0.400252482,0,0,0,,0,133,133,41,1,3,TL,crinimal,print,crinimal_p.png,,,,,
,,,,32377,001,2025-12-07_22h30.30.145,HW_LDT_1,2024.2.4,MacIntel,59.88023952,,,,,,,,,,,,,,,,,,,,847.7072,847.9056,847.9056,848.4049,,,,,,,,,,,,,,2.4979,0,,,,,,,,,,,,,,m,,,,,,,,,,,,,,,135,0,848.4052,850.9058,z,0,2.4979,,[],[],[],[],[],[],[],850.9059,852.9049,852.905,852.9052,[],[],[],[],[],[],[],,852.9052,852.9053,-0.01773327,-0.400252482,0,0,0,,0,134,134,99,1,3,word,DEBATE,cursive,debate_c.png,,,,,
,,,,32377,001,2025-12-07_22h30.30.145,HW_LDT_1,2024.2.4,MacIntel,59.88023952,,,,,,,,,,,,,,,,,,,,852.9063,853.1059,853.1059,853.6049,,,,,,,,,,,,,,1.233,1,,,,,,,,,,,,,,z,,,,,,,,,,,,,,,136,0,853.6054,854.8395,z,1,1.233,,[],[],[],[],[],[],[],854.8396,856.8392,856.8392,856.8394,[],[],[],[],[],[],[],,856.8394,856.8394,-0.01773327,-0.400252482,0,0,0,,0,135,135,3,1,3,RL,bebine,cursive,bebine_c.png,,,,,
,,,,32377,001,2025-12-07_22h30.30.145,HW_LDT_1,2024.2.4,MacIntel,59.88023952,,,,,,,,,,,,,,,,,,,,856.8405,857.0392,857.0393,857.5392,,,,,,,,,,,,,,1.5227,1,,,,,,,,,,,,,,z,,,,,,,,,,,,,,,137,0,857.5397,859.0717,z,1,1.5227,,[],[],[],[],[],[],[],859.0718,861.0717,861.0717,861.0718,[],[],[],[],[],[],[],,861.0719,861.072,-0.01773327,-0.400252482,0,0,0,,0,136,136,28,1,3,RL,rovastic,cursive,rovastic_c.png,,,,,
,,,,32377,001,2025-12-07_22h30.30.145,HW_LDT_1,2024.2.4,MacIntel,59.88023952,,,,,,,,,,,,,,,,,,,,861.0729,861.2725,861.2725,861.7725,,,,,,,,,,,,,,2.1532,1,,,,,,,,,,,,,,m,,,,,,,,,,,,,,,138,0,861.773,863.9392,m,1,2.1532,,[],[],[],[],[],[],[],863.9393,865.9382,865.9384,865.9385,[],[],[],[],[],[],[],,865.9386,865.9386,-0.01773327,-0.400252482,0,0,0,,0,137,137,157,1,3,word,VALIDITY,cursive,validity_c.png,,,,,
,,,,32377,001,2025-12-07_22h30.30.145,HW_LDT_1,2024.2.4,MacIntel,59.88023952,,,,,,,,,,,,,,,,,,,,865.9397,866.1382,866.1382,866.6392,,,,,,,,,,,,,,5.2208,1,,,,,,,,,,,,,,m,,,,,,,,,,,,,,,139,0,866.6396,871.8717,m,1,5.2208,,[],[],[],[],[],[],[],871.8718,873.8716,873.8716,873.8717,[],[],[],[],[],[],[],,873.8718,873.8718,-0.01773327,-0.400252482,0,0,0,,0,138,138,127,1,3,word,ORIGINAL,cursive,original_c.png,,,,,
,,,,32377,001,2025-12-07_22h30.30.145,HW_LDT_1,2024.2.4,MacIntel,59.88023952,,,,,,,,,,,,,,,,,,,,873.873,874.0715,874.0716,874.5715,,,,,,,,,,,,,,1.6552,1,,,,,,,,,,,,,,m,,,,,,,,,,,,,,,140,1,874.5721,876.2392,m,1,1.6552,,[],[],[],[],[],[],[],876.2393,878.2391,878.2392,879.4726,[],[],[],[],[],[],[],m,879.4727,879.4728,-0.01773327,-0.400252482,0,0,0,,0,139,139,94,1,3,word,CLINICAL,print,clinical_p.png,1.2327,,,,
,,,,32377,001,2025-12-07_22h30.30.145,HW_LDT_1,2024.2.4,MacIntel,59.88023952,,,,,,,,,,,,,,,,,,,,879.4738,879.6724,879.6725,880.1725,,,,,,,,,,,,,,2.8644,1,,,,,,,,,,,,,,m,,,,,,,,,,,,,,,141,0,880.173,883.0391,m,1,2.8644,,[],[],[],[],[],[],[],883.0391,885.0391,885.0391,885.0393,[],[],[],[],[],[],[],,885.0393,885.0395,-0.01773327,-0.400252482,0,0,0,,0,140,140,145,1,3,word,RESUME,cursive,resume_c.png,,,,,
,,,,32377,001,2025-12-07_22h30.30.145,HW_LDT_1,2024.2.4,MacIntel,59.88023952,,,,,,,,,,,,,,,,,,,,885.0405,885.2392,885.2392,885.7392,,,,,,,,,,,,,,4.1305,1,,,,,,,,,,,,,,z,,,,,,,,,,,,,,,142,1,885.7396,889.8714,z,1,4.1305,,[],[],[],[],[],[],[],889.8715,891.8714,891.8715,893.4551,[],[],[],[],[],[],[],m,893.4551,893.4553,-0.01773327,-0.400252482,0,0,0,,0,141,141,61,1,3,TL,pocily,print,pocily_p.png,1.5725,,,,
,,,,32377,001,2025-12-07_22h30.30.145,HW_LDT_1,2024.2.4,MacIntel,59.88023952,,,,,,,,,,,,,,,,,,,,893.4565,893.6548,893.6549,894.1557,,,,,,,,,,,,,,1.8062,1,,,,,,,,,,,,,,m,,,,,,,,,,,,,,,143,0,894.1562,895.9724,m,1,1.8062,,[],[],[],[],[],[],[],895.9725,897.9724,897.9725,897.9727,[],[],[],[],[],[],[],,897.9727,897.9728,-0.01773327,-0.400252482,0,0,0,,0,142,142,137,1,3,word,RAPIDLY,print,rapidly_p.png,,,,,
,,,,32377,001,2025-12-07_22h30.30.145,HW_LDT_1,2024.2.4,MacIntel,59.88023952,,,,,,,,,,,,,,,,,,,,897.9739,898.1715,898.1715,898.6714,,,,,,,,,,,,,,2.798,1,,,,,,,,,,,,,,z,,,,,,,,,,,,,,,144,0,898.6719,901.4714,z,1,2.798,,[],[],[],[],[],[],[],901.4715,903.4724,903.4724,903.4726,[],[],[],[],[],[],[],,903.4726,903.4727,-0.01773327,-0.400252482,0,0,0,,0,143,143,36,1,3,TL,carema,cursive,carema_c.png,,,,,
,,,,32377,001,2025-12-07_22h30.30.145,HW_LDT_1,2024.2.4,MacIntel,59.88023952,,,,,,,,,,,,,,,,,,,,903.4738,903.6725,903.6725,904.1724,,,,,,,,,,,,,,1.3817,1,,,,,,,,,,,,,,z,,,,,,,,,,,,,,,145,0,904.1728,905.5557,z,1,1.3817,,[],[],[],[],[],[],[],905.5558,907.5558,907.5558,907.556,[],[],[],[],[],[],[],,907.5561,907.5561,-0.01773327,-0.400252482,0,0,0,,0,144,144,9,1,3,RL,docirant,print,docirant_p.png,,,,,
,,,,32377,001,2025-12-07_22h30.30.145,HW_LDT_1,2024.2.4,MacIntel,59.88023952,,,,,,,,,,,,,,,,,,,,907.5571,907.7549,907.755,908.2558,,,,,,,,,,,,,,2.0123,1,,,,,,,,,,,,,,z,,,,,,,,,,,,,,,146,0,908.2563,910.2713,z,1,2.0123,,[],[],[],[],[],[],[],910.2715,912.2715,912.2715,912.2717,[],[],[],[],[],[],[],,912.2717,912.2718,-0.01773327,-0.400252482,0,0,0,,0,145,145,64,1,3,TL,radiply,print,radiply_p.png,,,,,
,,,,32377,001,2025-12-07_22h30.30.145,HW_LDT_1,2024.2.4,MacIntel,59.88023952,,,,,,,,,,,,,,,,,,,,912.2729,912.4723,912.4724,912.9723,,,,,,,,,,,,,,5.555,1,,,,,,,,,,,,,,z,,,,,,,,,,,,,,,147,0,912.9728,918.5384,z,1,5.555,,[],[],[],[],[],[],[],918.5384,920.5381,920.5381,920.5382,[],[],[],[],[],[],[],,920.5383,920.5384,-0.01773327,-0.400252482,0,0,0,,0,146,146,24,1,3,RL,quafidy,print,quafidy_p.png,,,,,
,,,,32377,001,2025-12-07_22h30.30.145,HW_LDT_1,2024.2.4,MacIntel,59.88023952,,,,,,,,,,,,,,,,,,,,920.5394,920.739,920.739,921.2391,,,,,,,,,,,,,,1.9812,1,,,,,,,,,,,,,,m,,,,,,,,,,,,,,,148,0,921.2395,923.2215,m,1,1.9812,,[],[],[],[],[],[],[],923.2216,925.2223,925.2223,925.2225,[],[],[],[],[],[],[],,925.2225,925.2227,-0.01773327,-0.400252482,0,0,0,,0,147,147,103,1,3,word,DISPUTE,print,dispute_p.png,,,,,
,,,,32377,001,2025-12-07_22h30.30.145,HW_LDT_1,2024.2.4,MacIntel,59.88023952,,,,,,,,,,,,,,,,,,,,925.2237,925.4223,925.4223,925.9224,,,,,,,,,,,,,,4.3032,0,,,,,,,,,,,,,,m,,,,,,,,,,,,,,,149,0,925.9229,930.2391,z,0,4.3032,,[],[],[],[],[],[],[],930.2393,932.2392,932.2392,932.2393,[],[],[],[],[],[],[],,932.2393,932.2395,-0.01773327,-0.400252482,0,0,0,,0,148,148,123,1,3,word,MODERATE,cursive,moderate_c.png,,,,,
,,,,32377,001,2025-12-07_22h30.30.145,HW_LDT_1,2024.2.4,MacIntel,59.88023952,,,,,,,,,,,,,,,,,,,,932.2405,932.439,932.4391,932.939,,,,,,,,,,,,,,3.5301,1,,,,,,,,,,,,,,z,,,,,,,,,,,,,,,150,0,932.9395,936.4722,z,1,3.5301,,[],[],[],[],[],[],[],936.4724,938.4714,938.4714,938.4716,[],[],[],[],[],[],[],,938.4716,938.4718,-0.01773327,-0.400252482,0,0,0,,0,149,149,14,1,3,RL,lofase,cursive,lofase_c.png,,,,,
,,,,32377,001,2025-12-07_22h30.30.145,HW_LDT_1,2024.2.4,MacIntel,59.88023952,,,,,,,,,,,,,,,,,,,,938.4729,938.6714,938.6715,939.1724,,,,,,,,,,,,,,2.4039,0,,,,,,,,,,,,,,m,,,,,,,,,,,,,,,151,0,939.1728,941.5891,z,0,2.4039,,[],[],[],[],[],[],[],941.5891,943.5881,943.5881,943.5882,[],[],[],[],[],[],[],,943.5883,943.5884,-0.01773327,-0.400252482,0,0,0,,0,150,150,120,1,3,word,MILITARY,cursive,military_c.png,,,,,
,,,,32377,001,2025-12-07_22h30.30.145,HW_LDT_1,2024.2.4,MacIntel,59.88023952,,,,,,,,,,,,,,,,,,,,943.5894,943.7889,943.789,944.2879,,,,,,,,,,,,,,2.1719,1,,,,,,,,,,,,,,z,,,,,,,,,,,,,,,152,1,944.2885,946.4724,z,1,2.1719,,[],[],[],[],[],[],[],946.4725,948.4722,948.4723,949.5388,[],[],[],[],[],[],[],m,949.5389,949.539,-0.01773327,-0.400252482,0,0,0,,0,151,151,57,1,3,TL,moredate,cursive,moredate_c.png,1.0649,,,,
,,,,32377,001,2025-12-07_22h30.30.145,HW_LDT_1,2024.2.4,MacIntel,59.88023952,,,,,,,,,,,,,,,,,,,,949.5399,949.7381,949.7381,950.2389,,,,,,,,,,,,,,4.1363,0,,,,,,,,,,,,,,m,,,,,,,,,,,,,,,153,0,950.2394,954.389,z,0,4.1363,,[],[],[],[],[],[],[],954.3891,956.3889,956.389,956.3892,[],[],[],[],[],[],[],,956.3892,956.3893,-0.01773327,-0.400252482,0,0,0,,0,152,152,153,1,3,word,STOLEN,cursive,stolen_c.png,,,,,
,,,,32377,001,2025-12-07_22h30.30.145,HW_LDT_1,2024.2.4,MacIntel,59.88023952,,,,,,,,,,,,,,,,,,,,956.3904,956.5881,956.5881,957.0879,,,,,,,,,,,,,,1.4984,1,,,,,,,,,,,,,,z,,,,,,,,,,,,,,,154,0,957.0884,958.588,z,1,1.4984,,[],[],[],[],[],[],[],958.588,960.5886,960.5887,960.5889,[],[],[],[],[],[],[],,960.589,960.589,-0.01773327,-0.400252482,0,0,0,,0,153,153,67,1,3,TL,retome,print,retome_p.png,,,,,
,,,,32377,001,2025-12-07_22h30.30.145,HW_LDT_1,2024.2.4,MacIntel,59.88023952,,,,,,,,,,,,,,,,,,,,960.59,960.789,960.7891,961.2889,,,,,,,,,,,,,,3.5875,1,,,,,,,,,,,,,,m,,,,,,,,,,,,,,,155,0,961.2893,964.8882,m,1,3.5875,,[],[],[],[],[],[],[],964.8883,966.8889,966.8889,966.889,[],[],[],[],[],[],[],,966.8891,966.8892,-0.01773327,-0.400252482,0,0,0,,0,154,154,130,1,3,word,POLICY,print,policy_p.png,,,,,
,,,,32377,001,2025-12-07_22h30.30.145,HW_LDT_1,2024.2.4,MacIntel,59.88023952,,,,,,,,,,,,,,,,,,,,966.8902,967.0889,967.0889,967.5889,,,,,,,,,,,,,,2.0477,1,,,,,,,,,,,,,,z,,,,,,,,,,,,,,,156,0,967.5894,969.6381,z,1,2.0477,,[],[],[],[],[],[],[],969.6381,971.6389,971.639,971.6392,[],[],[],[],[],[],[],,971.6393,971.6393,-0.01773327,-0.400252482,0,0,0,,0,155,155,19,1,3,RL,opcifal,cursive,opcifal_c.png,,,,,
,,,,32377,001,2025-12-07_22h30.30.145,HW_LDT_1,2024.2.4,MacIntel,59.88023952,,,,,,,,,,,,,,,,,,,,971.6404,971.8389,971.8389,972.339,,,,,,,,,,,,,,2.1646,1,,,,,,,,,,,,,,z,,,,,,,,,,,,,,,157,0,972.3394,974.5056,z,1,2.1646,,[],[],[],[],[],[],[],974.5056,976.5047,976.5048,976.5049,[],[],[],[],[],[],[],,976.5049,976.505,-0.01773327,-0.400252482,0,0,0,,0,156,156,6,1,3,RL,cenesony,cursive,cenesony_c.png,,,,,
,,,,32377,001,2025-12-07_22h30.30.145,HW_LDT_1,2024.2.4,MacIntel,59.88023952,,,,,,,,,,,,,,,,,,,,976.5062,976.7055,976.7056,977.2055,,,,,,,,,,,,,,2.6702,1,,,,,,,,,,,,,,m,,,,,,,,,,,,,,,158,0,977.206,979.8891,m,1,2.6702,,[],[],[],[],[],[],[],979.8891,981.888,981.888,981.8881,[],[],[],[],[],[],[],,981.8882,981.8882,-0.01773327,-0.400252482,0,0,0,,0,157,157,116,1,3,word,MARGINAL,print,marginal_p.png,,,,,
,,,,32377,001,2025-12-07_22h30.30.145,HW_LDT_1,2024.2.4,MacIntel,59.88023952,,,,,,,,,,,,,,,,,,,,981.8893,982.0888,982.0888,982.5889,,,,,,,,,,,,,,1.6303,1,,,,,,,,,,,,,,z,,,,,,,,,,,,,,,159,1,982.5893,984.2221,z,1,1.6303,,[],[],[],[],[],[],[],984.2223,986.2213,986.2213,987.8379,[],[],[],[],[],[],[],z,987.838,987.8381,-0.01773327,-0.400252482,0,0,0,,0,158,158,37,1,3,TL,cacapity,cursive,cacapity_c.png,1.6127,,,,
,,,,32377,001,2025-12-07_22h30.30.145,HW_LDT_1,2024.2.4,MacIntel,59.88023952,,,,,,,,,,,,,,,,,,,,987.8391,988.0388,988.0389,988.538,,,,,,,,,,,,,,2.2716,1,,,,,,,,,,,,,,m,,,,,,,,,,,,,,,160,0,988.5386,990.8222,m,1,2.2716,,[],[],[],[],[],[],[],990.8223,992.8212,992.8213,992.8215,[],[],[],[],[],[],[],,992.8215,992.8215,-0.01773327,-0.400252482,0,0,0,,0,159,159,124,1,3,word,NUMERICAL,print,numerical_p.png,,,,,
,,,,32377,001,2025-12-07_22h30.30.145,HW_LDT_1,2024.2.4,MacIntel,59.88023952,,,,,,,,,,,,,,,,,,,,,,,,,,,,,,,,,,,,,,,,,,,,,,,,,,,,,,,,,,,,,,,,,,,,,,,,,,,,,,,,,,,,,,,,,,,,,,,,,,,,,,,,,,,,,,,,,,,992.8285,997.8216
