counterbalance_lists.group,counterbalance_lists.remaining,get_list.started,get_list.stopped,participant,session,date,expName,psychopyVersion,OS,frameRate,Instructions.started,Instructions.stopped,key_resp.keys,key_resp.rt,key_resp.duration,instr_done_touch.x,instr_done_touch.y,instr_done_touch.leftButton,instr_done_touch.midButton,instr_done_touch.rightButton,start_instr.thisRepN,start_instr.thisTrialN,start_instr.thisN,start_instr.thisIndex,start_instr.ran,pageN,phase,instruct_text,has_image,instruct_image,showProgress.started,showProgress.stopped,fix.started,fix.stopped,prac.started,prac.stopped,response.keys,response.corr,response.rt,response.duration,touch_resp.x,touch_resp.y,touch_resp.leftButton,touch_resp.midButton,touch_resp.rightButton,touch_resp.time,touch_resp.clicked_name,rt,corr,feedback.started,feedback.stopped,trials.thisRepN,trials.thisTrialN,trials.thisN,trials.thisIndex,trials.ran,TrialID,StimulusType,Condition,PrimeDuration,Prime,Target,corrAns,Instructions_expt.started,Instructions_expt.stopped,key_resp_3.keys,key_resp_3.rt,key_resp_3.duration,instr_done_touch_3.x,instr_done_touch_3.y,instr_done_touch_3.leftButton,instr_done_touch_3.midButton,instr_done_touch_3.rightButton,instr_experiment.thisRepN,instr_experiment.thisTrialN,instr_experiment.thisN,instr_experiment.thisIndex,instr_experiment.ran,trialID,flag,maintask.started,maintask.stopped,key_resp_2.keys,key_resp_2.corr,key_resp_2.rt,key_resp_2.duration,targ_click.x,targ_click.y,targ_click.leftButton,targ_click.midButton,targ_click.rightButton,targ_click.time,targ_click.clicked_name,ITI.started,ITI.stopped,probe.started,probe.stopped,click_probe.x,click_probe.y,click_probe.leftButton,click_probe.midButton,click_probe.rightButton,click_probe.time,click_probe.clicked_name,key_resp_probe.keys,Break.started,Break.stopped,break_done_touch.x,break_done_touch.y,break_done_touch.leftButton,break_done_touch.midButton,break_done_touch.rightButton,break_done_keyboard.keys,list4_trials.thisRepN,list4_trials.thisTrialN,list4_trials.thisN,list4_trials.thisIndex,list4_trials.ran,list_id,item_type,string,font,stim_file,key_resp_probe.rt,key_resp_probe.duration,break_done_keyboard.rt,break_done_keyboard.duration,End.started,End.stopped
list4,,0.475,0.476,32373,001,2025-12-04_12h01.06.915,HW_LDT_1,2024.2.4,MacIntel,76.92307692,,,,,,,,,,,,,,,,,,,,,,,,,,,,,,,,,,,,,,,,,,,,,,,,,,,,,,,,,,,,,,,,,,,,,,,,,,,,,,,,,,,,,,,,,,,,,,,,,,,,,,,,,,,,,,,,,,,,,,,
,,,,32373,001,2025-12-04_12h01.06.915,HW_LDT_1,2024.2.4,MacIntel,76.92307692,0.523,21.984,space,21.319,,-0.145555556,-0.271111111,0,0,0,0,0,0,0,1,1,instructions,"INSTRUCTIONS
At the start of each trial, look at the plus sign  (+) in the center of the screen.  This tells you that a trial is about to begin and where to look. Second, the plus sign will disappear and a string of letters will appear. Your task is to determine if the string of letters is a word or not. If the item is a word press the M key (on keyboard)  or touch the word button (phone/tablet).  If the item is not a word,  press the  Z key (on keyboard)  or touch the nonword button (on phone/tablet). The items will be presented for a short time. 
Press the space bar or touch  continue.",0,,,,,,,,,,,,,,,,,,,,,,,,,,,,,,,,,,,,,,,,,,,,,,,,,,,,,,,,,,,,,,,,,,,,,,,,,,,,,,,,,,,,,,,,,,,,,,,,,,,,
,,,,32373,001,2025-12-04_12h01.06.915,HW_LDT_1,2024.2.4,MacIntel,76.92307692,21.986,27.711,space,5.682,,-0.145555556,-0.271111111,0,0,0,0,1,1,1,1,2,instructions,"If your device has a keyboard, press the 'Z' key for nonwords and the 'M' key for words.





Press the space bar or touch the button below to continue.",0,keyboard-example.gif,,,,,,,,,,,,,,,,,,,,,,,,,,,,,,,,,,,,,,,,,,,,,,,,,,,,,,,,,,,,,,,,,,,,,,,,,,,,,,,,,,,,,,,,,,,,,,,,,,,
,,,,32373,001,2025-12-04_12h01.06.915,HW_LDT_1,2024.2.4,MacIntel,76.92307692,27.712,30.194,space,2.438,,-0.145555556,-0.271111111,0,0,0,0,2,2,2,1,3,instructions,"If you are using a touchscreen only device, use the buttons on the screen. Do not use the mouse.





Press the space bar or touch the button below to continue.",0,touchscreen-example.gif,,,,,,,,,,,,,,,,,,,,,,,,,,,,,,,,,,,,,,,,,,,,,,,,,,,,,,,,,,,,,,,,,,,,,,,,,,,,,,,,,,,,,,,,,,,,,,,,,,,
,,,,32373,001,2025-12-04_12h01.06.915,HW_LDT_1,2024.2.4,MacIntel,76.92307692,30.197,32.078,space,1.839,,-0.145555556,-0.271111111,0,0,0,0,3,3,3,1,4,instructions,"It is very important that you respond as quickly and accurately as possible, as each letter string will only be on the screen for two seconds. If you do not respond within this time, the message 'Too slow!' will be displayed and the experiment will progress to the next letter string. The first 20 trials will be practice trials and you will receive feedback on your answers. 

Press the space bar or touch the button below to start the practice trials.",0,,,,,,,,,,,,,,,,,,,,,,,,,,,,,,,,,,,,,,,,,,,,,,,,,,,,,,,,,,,,,,,,,,,,,,,,,,,,,,,,,,,,,,,,,,,,,,,,,,,,
,,,,32373,001,2025-12-04_12h01.06.915,HW_LDT_1,2024.2.4,MacIntel,76.92307692,,,,,,,,,,,,,,,,,,,,,32.11,32.278,32.278,32.781,32.781,33.962,m,1,1.156,,[],[],[],[],[],[],[],1.156,1,33.963,34.462,0,0,0,1,1,1002,WORD,"ID",33,adjust,ADJUST,m,,,,,,,,,,,,,,,,,,,,,,,,,,,,,,,,,,,,,,,,,,,,,,,,,,,,,,,,,,,,,,,,,,
,,,,32373,001,2025-12-04_12h01.06.915,HW_LDT_1,2024.2.4,MacIntel,76.92307692,,,,,,,,,,,,,,,,,,,,,34.463,34.66,34.661,35.161,35.162,36.245,z,1,1.062,,[],[],[],[],[],[],[],1.062,1,36.245,36.744,0,1,1,11,1,1012,NW,"ID",16,rashet,RASHET,z,,,,,,,,,,,,,,,,,,,,,,,,,,,,,,,,,,,,,,,,,,,,,,,,,,,,,,,,,,,,,,,,,,
,,,,32373,001,2025-12-04_12h01.06.915,HW_LDT_1,2024.2.4,MacIntel,76.92307692,,,,,,,,,,,,,,,,,,,,,36.745,36.945,36.945,37.445,37.446,38.411,z,1,0.949,,[],[],[],[],[],[],[],0.949,1,38.411,38.912,0,2,2,15,1,1016,NW,UN,16,mushed,WHAISE,z,,,,,,,,,,,,,,,,,,,,,,,,,,,,,,,,,,,,,,,,,,,,,,,,,,,,,,,,,,,,,,,,,,
,,,,32373,001,2025-12-04_12h01.06.915,HW_LDT_1,2024.2.4,MacIntel,76.92307692,,,,,,,,,,,,,,,,,,,,,38.912,39.111,39.111,39.611,39.612,40.494,z,1,0.866,,[],[],[],[],[],[],[],0.866,1,40.495,40.994,0,3,3,13,1,1014,NW,UN,33,winfer,ROUPET,z,,,,,,,,,,,,,,,,,,,,,,,,,,,,,,,,,,,,,,,,,,,,,,,,,,,,,,,,,,,,,,,,,,
,,,,32373,001,2025-12-04_12h01.06.915,HW_LDT_1,2024.2.4,MacIntel,76.92307692,,,,,,,,,,,,,,,,,,,,,40.995,41.193,41.193,41.694,41.695,42.494,m,1,0.783,,[],[],[],[],[],[],[],0.783,1,42.495,42.994,0,4,4,7,1,1008,WORD,UN,16,hurdle,VOLUME,m,,,,,,,,,,,,,,,,,,,,,,,,,,,,,,,,,,,,,,,,,,,,,,,,,,,,,,,,,,,,,,,,,,
,,,,32373,001,2025-12-04_12h01.06.915,HW_LDT_1,2024.2.4,MacIntel,76.92307692,,,,,,,,,,,,,,,,,,,,,42.995,43.193,43.193,43.694,43.695,44.477,m,1,0.765,,[],[],[],[],[],[],[],0.765,1,44.477,44.977,0,5,5,4,1,1005,WORD,UN,33,abound,SQUEAK,m,,,,,,,,,,,,,,,,,,,,,,,,,,,,,,,,,,,,,,,,,,,,,,,,,,,,,,,,,,,,,,,,,,
,,,,32373,001,2025-12-04_12h01.06.915,HW_LDT_1,2024.2.4,MacIntel,76.92307692,,,,,,,,,,,,,,,,,,,,,44.978,45.177,45.177,45.678,45.678,46.495,m,1,0.807,,[],[],[],[],[],[],[],0.807,1,46.495,46.994,0,6,6,0,1,1001,WORD,"ID",33,utopia,UTOPIA,m,,,,,,,,,,,,,,,,,,,,,,,,,,,,,,,,,,,,,,,,,,,,,,,,,,,,,,,,,,,,,,,,,,
,,,,32373,001,2025-12-04_12h01.06.915,HW_LDT_1,2024.2.4,MacIntel,76.92307692,,,,,,,,,,,,,,,,,,,,,46.995,47.194,47.194,47.693,47.694,48.411,m,1,0.7,,[],[],[],[],[],[],[],0.7,1,48.411,48.91,0,7,7,2,1,1003,WORD,"ID",16,almond,ALMOND,m,,,,,,,,,,,,,,,,,,,,,,,,,,,,,,,,,,,,,,,,,,,,,,,,,,,,,,,,,,,,,,,,,,
,,,,32373,001,2025-12-04_12h01.06.915,HW_LDT_1,2024.2.4,MacIntel,76.92307692,,,,,,,,,,,,,,,,,,,,,48.912,49.11,49.11,49.609,49.61,50.327,z,1,0.704,,[],[],[],[],[],[],[],0.704,1,50.327,50.828,0,8,8,14,1,1015,NW,UN,16,miaber,THRALE,z,,,,,,,,,,,,,,,,,,,,,,,,,,,,,,,,,,,,,,,,,,,,,,,,,,,,,,,,,,,,,,,,,,
,,,,32373,001,2025-12-04_12h01.06.915,HW_LDT_1,2024.2.4,MacIntel,76.92307692,,,,,,,,,,,,,,,,,,,,,50.829,51.028,51.028,51.527,51.529,52.243,m,1,0.7,,[],[],[],[],[],[],[],0.7,1,52.243,52.744,0,9,9,3,1,1004,WORD,"ID",16,matrix,MATRIX,m,,,,,,,,,,,,,,,,,,,,,,,,,,,,,,,,,,,,,,,,,,,,,,,,,,,,,,,,,,,,,,,,,,
,,,,32373,001,2025-12-04_12h01.06.915,HW_LDT_1,2024.2.4,MacIntel,76.92307692,,,,,,,,,,,,,,,,,,,,,52.745,52.944,52.944,53.444,53.445,54.261,z,1,0.799,,[],[],[],[],[],[],[],0.799,1,54.261,54.761,0,10,10,8,1,1009,NW,"ID",33,aslert,ASLERT,z,,,,,,,,,,,,,,,,,,,,,,,,,,,,,,,,,,,,,,,,,,,,,,,,,,,,,,,,,,,,,,,,,,
,,,,32373,001,2025-12-04_12h01.06.915,HW_LDT_1,2024.2.4,MacIntel,76.92307692,,,,,,,,,,,,,,,,,,,,,54.762,54.96,54.96,55.462,55.462,56.343,z,1,0.865,,[],[],[],[],[],[],[],0.865,1,56.343,56.845,0,11,11,9,1,1010,NW,"ID",33,fariny,FARINY,z,,,,,,,,,,,,,,,,,,,,,,,,,,,,,,,,,,,,,,,,,,,,,,,,,,,,,,,,,,,,,,,,,,
,,,,32373,001,2025-12-04_12h01.06.915,HW_LDT_1,2024.2.4,MacIntel,76.92307692,,,,,,,,,,,,,,,,,,,,,56.845,57.044,57.044,57.543,57.545,58.211,m,1,0.646,,[],[],[],[],[],[],[],0.646,1,58.211,58.711,0,12,12,6,1,1007,WORD,UN,16,tropic,ZOMBIE,m,,,,,,,,,,,,,,,,,,,,,,,,,,,,,,,,,,,,,,,,,,,,,,,,,,,,,,,,,,,,,,,,,,
,,,,32373,001,2025-12-04_12h01.06.915,HW_LDT_1,2024.2.4,MacIntel,76.92307692,,,,,,,,,,,,,,,,,,,,,58.712,58.911,58.911,59.411,59.411,60.127,z,1,0.699,,[],[],[],[],[],[],[],0.699,1,60.127,60.628,0,13,13,10,1,1011,NW,"ID",16,inlade,INLADE,z,,,,,,,,,,,,,,,,,,,,,,,,,,,,,,,,,,,,,,,,,,,,,,,,,,,,,,,,,,,,,,,,,,
,,,,32373,001,2025-12-04_12h01.06.915,HW_LDT_1,2024.2.4,MacIntel,76.92307692,,,,,,,,,,,,,,,,,,,,,60.628,60.826,60.827,61.328,61.328,62.043,m,1,0.699,,[],[],[],[],[],[],[],0.699,1,62.043,62.543,0,14,14,5,1,1006,WORD,UN,33,frenzy,OBTAIN,m,,,,,,,,,,,,,,,,,,,,,,,,,,,,,,,,,,,,,,,,,,,,,,,,,,,,,,,,,,,,,,,,,,
,,,,32373,001,2025-12-04_12h01.06.915,HW_LDT_1,2024.2.4,MacIntel,76.92307692,,,,,,,,,,,,,,,,,,,,,62.544,62.745,62.746,63.244,63.244,64.061,z,1,0.799,,[],[],[],[],[],[],[],0.799,1,64.061,64.561,0,15,15,12,1,1013,NW,UN,33,adveil,SPRINY,z,,,,,,,,,,,,,,,,,,,,,,,,,,,,,,,,,,,,,,,,,,,,,,,,,,,,,,,,,,,,,,,,,,
,,,,32373,001,2025-12-04_12h01.06.915,HW_LDT_1,2024.2.4,MacIntel,76.92307692,,,,,,,,,,,,,,,,1,end_of_practice,"You have completed the practice trials. During the experimental trials, you will not receive feedback. On some trials you will be asked to report whether the item you just saw was in cursive or print. 
Before you begin, please ensure that you are in a comfortable and quiet location and will not be disturbed for about 15 minutes, as we cannot use your data if you do not complete all the trials. 
 When you are ready to start the experimental trials, please press space or touch the button below.",,,,,,,,,,,,,,,,,,,,,,,,,,,,,,,,,,,,64.567,73.044,space,8.434,,-0.145555556,-0.271111111,0,0,0,0,0,0,0,1,,,,,,,,,,,,,,,,,,,,,,,,,,,,,,,,,,,,,,,,,,,,,,,,,,,
,,,,32373,001,2025-12-04_12h01.06.915,HW_LDT_1,2024.2.4,MacIntel,76.92307692,,,,,,,,,,,,,,,,,,,,,73.077,73.243,73.243,73.737,,,,,,,,,,,,,,1.117,0,,,,,,,,,,,,,,m,,,,,,,,,,,,,,,,1,0,73.738,74.86,z,0,1.117,,[],[],[],[],[],[],[],74.86,76.86,76.86,76.865,[],[],[],[],[],[],[],,76.865,76.868,-0.145555556,-0.271111111,0,0,0,,0,0,0,101,1,4,word,DELICATE,cursive,delicate_c.png,,,,,,
,,,,32373,001,2025-12-04_12h01.06.915,HW_LDT_1,2024.2.4,MacIntel,76.92307692,,,,,,,,,,,,,,,,,,,,,76.869,77.062,77.062,77.56,,,,,,,,,,,,,,1.028,1,,,,,,,,,,,,,,m,,,,,,,,,,,,,,,,2,0,77.561,78.597,m,1,1.028,,[],[],[],[],[],[],[],78.597,80.596,80.596,80.596,[],[],[],[],[],[],[],,80.596,80.596,-0.145555556,-0.271111111,0,0,0,,0,1,1,141,1,4,word,RELIGION,print,religion_p.png,,,,,,
,,,,32373,001,2025-12-04_12h01.06.915,HW_LDT_1,2024.2.4,MacIntel,76.92307692,,,,,,,,,,,,,,,,,,,,,80.597,80.793,80.793,81.295,,,,,,,,,,,,,,0.815,1,,,,,,,,,,,,,,m,,,,,,,,,,,,,,,,3,0,81.295,82.11,m,1,0.815,,[],[],[],[],[],[],[],82.11,84.111,84.111,84.111,[],[],[],[],[],[],[],,84.111,84.111,-0.145555556,-0.271111111,0,0,0,,0,2,2,84,1,4,word,BELOVED,print,beloved_p.png,,,,,,
,,,,32373,001,2025-12-04_12h01.06.915,HW_LDT_1,2024.2.4,MacIntel,76.92307692,,,,,,,,,,,,,,,,,,,,,84.112,84.311,84.311,84.813,,,,,,,,,,,,,,1.181,1,,,,,,,,,,,,,,m,,,,,,,,,,,,,,,,4,0,84.813,85.997,m,1,1.181,,[],[],[],[],[],[],[],85.997,87.994,87.994,87.994,[],[],[],[],[],[],[],,87.994,87.994,-0.145555556,-0.271111111,0,0,0,,0,3,3,137,1,4,word,RAPIDLY,cursive,rapidly_c.png,,,,,,
,,,,32373,001,2025-12-04_12h01.06.915,HW_LDT_1,2024.2.4,MacIntel,76.92307692,,,,,,,,,,,,,,,,,,,,,87.995,88.193,88.193,88.693,,,,,,,,,,,,,,0.963,0,,,,,,,,,,,,,,z,,,,,,,,,,,,,,,,5,0,88.694,89.659,m,0,0.963,,[],[],[],[],[],[],[],89.659,91.659,91.659,91.66,[],[],[],[],[],[],[],,91.66,91.66,-0.145555556,-0.271111111,0,0,0,,0,4,4,55,1,4,TL,corevage,cursive,corevage_c.png,,,,,,
,,,,32373,001,2025-12-04_12h01.06.915,HW_LDT_1,2024.2.4,MacIntel,76.92307692,,,,,,,,,,,,,,,,,,,,,91.662,91.859,91.859,92.361,,,,,,,,,,,,,,0.926,0,,,,,,,,,,,,,,m,,,,,,,,,,,,,,,,6,1,92.362,93.294,z,0,0.926,,[],[],[],[],[],[],[],93.294,95.294,95.294,98.093,[],[],[],[],[],[],[],z,98.093,98.093,-0.145555556,-0.271111111,0,0,0,,0,5,5,92,1,4,word,CATEGORY,cursive,category_c.png,2.795,,,,,
,,,,32373,001,2025-12-04_12h01.06.915,HW_LDT_1,2024.2.4,MacIntel,76.92307692,,,,,,,,,,,,,,,,,,,,,98.094,98.292,98.292,98.793,,,,,,,,,,,,,,1.008,1,,,,,,,,,,,,,,m,,,,,,,,,,,,,,,,7,0,98.794,99.809,m,1,1.008,,[],[],[],[],[],[],[],99.809,101.809,101.809,101.809,[],[],[],[],[],[],[],,101.809,101.809,-0.145555556,-0.271111111,0,0,0,,0,6,6,153,1,4,word,STOLEN,cursive,stolen_c.png,,,,,,
,,,,32373,001,2025-12-04_12h01.06.915,HW_LDT_1,2024.2.4,MacIntel,76.92307692,,,,,,,,,,,,,,,,,,,,,101.81,102.009,102.009,102.51,,,,,,,,,,,,,,0.846,1,,,,,,,,,,,,,,z,,,,,,,,,,,,,,,,8,0,102.511,103.359,z,1,0.846,,[],[],[],[],[],[],[],103.359,105.359,105.359,105.36,[],[],[],[],[],[],[],,105.36,105.361,-0.145555556,-0.271111111,0,0,0,,0,7,7,61,1,4,TL,lotace,cursive,lotace_c.png,,,,,,
,,,,32373,001,2025-12-04_12h01.06.915,HW_LDT_1,2024.2.4,MacIntel,76.92307692,,,,,,,,,,,,,,,,,,,,,105.362,105.561,105.561,106.061,,,,,,,,,,,,,,0.662,1,,,,,,,,,,,,,,m,,,,,,,,,,,,,,,,9,0,106.061,106.726,m,1,0.662,,[],[],[],[],[],[],[],106.726,108.727,108.727,108.728,[],[],[],[],[],[],[],,108.728,108.728,-0.145555556,-0.271111111,0,0,0,,0,8,8,93,1,4,word,CEREMONY,print,ceremony_p.png,,,,,,
,,,,32373,001,2025-12-04_12h01.06.915,HW_LDT_1,2024.2.4,MacIntel,76.92307692,,,,,,,,,,,,,,,,,,,,,108.729,108.926,108.926,109.426,,,,,,,,,,,,,,0.693,0,,,,,,,,,,,,,,z,,,,,,,,,,,,,,,,10,0,109.428,110.127,m,0,0.693,,[],[],[],[],[],[],[],110.127,112.126,112.127,112.127,[],[],[],[],[],[],[],,112.127,112.127,-0.145555556,-0.271111111,0,0,0,,0,9,9,70,1,4,TL,quatily,print,quatily_p.png,,,,,,
,,,,32373,001,2025-12-04_12h01.06.915,HW_LDT_1,2024.2.4,MacIntel,76.92307692,,,,,,,,,,,,,,,,,,,,,112.128,112.326,112.326,112.827,,,,,,,,,,,,,,0.845,1,,,,,,,,,,,,,,z,,,,,,,,,,,,,,,,11,0,112.827,113.677,z,1,0.845,,[],[],[],[],[],[],[],113.677,115.677,115.677,115.677,[],[],[],[],[],[],[],,115.677,115.677,-0.145555556,-0.271111111,0,0,0,,0,10,10,4,1,4,RL,betemit,cursive,betemit_c.png,,,,,,
,,,,32373,001,2025-12-04_12h01.06.915,HW_LDT_1,2024.2.4,MacIntel,76.92307692,,,,,,,,,,,,,,,,,,,,,115.678,115.877,115.877,116.376,,,,,,,,,,,,,,0.795,1,,,,,,,,,,,,,,m,,,,,,,,,,,,,,,,12,0,116.377,117.176,m,1,0.795,,[],[],[],[],[],[],[],117.176,119.175,119.175,119.175,[],[],[],[],[],[],[],,119.175,119.175,-0.145555556,-0.271111111,0,0,0,,0,11,11,146,1,4,word,RETIRE,print,retire_p.png,,,,,,
,,,,32373,001,2025-12-04_12h01.06.915,HW_LDT_1,2024.2.4,MacIntel,76.92307692,,,,,,,,,,,,,,,,,,,,,119.176,119.376,119.376,119.876,,,,,,,,,,,,,,0.761,1,,,,,,,,,,,,,,m,,,,,,,,,,,,,,,,13,0,119.877,120.643,m,1,0.761,,[],[],[],[],[],[],[],120.643,122.642,122.642,122.644,[],[],[],[],[],[],[],,122.644,122.644,-0.145555556,-0.271111111,0,0,0,,0,12,12,110,1,4,word,HERITAGE,print,heritage_p.png,,,,,,
,,,,32373,001,2025-12-04_12h01.06.915,HW_LDT_1,2024.2.4,MacIntel,76.92307692,,,,,,,,,,,,,,,,,,,,,122.645,122.842,122.842,123.344,,,,,,,,,,,,,,0.747,1,,,,,,,,,,,,,,z,,,,,,,,,,,,,,,,14,0,123.344,124.092,z,1,0.747,,[],[],[],[],[],[],[],124.092,126.092,126.093,126.094,[],[],[],[],[],[],[],,126.094,126.094,-0.145555556,-0.271111111,0,0,0,,0,13,13,40,1,4,RL,reconal,print,reconal_p.png,,,,,,
,,,,32373,001,2025-12-04_12h01.06.915,HW_LDT_1,2024.2.4,MacIntel,76.92307692,,,,,,,,,,,,,,,,,,,,,126.095,126.293,126.293,126.794,,,,,,,,,,,,,,0.91,1,,,,,,,,,,,,,,m,,,,,,,,,,,,,,,,15,1,126.794,127.709,m,1,0.91,,[],[],[],[],[],[],[],127.709,129.71,129.71,131.443,[],[],[],[],[],[],[],z,131.443,131.443,-0.145555556,-0.271111111,0,0,0,,0,14,14,139,1,4,word,REGULAR,cursive,regular_c.png,1.727,,,,,
,,,,32373,001,2025-12-04_12h01.06.915,HW_LDT_1,2024.2.4,MacIntel,76.92307692,,,,,,,,,,,,,,,,,,,,,131.444,131.643,131.643,132.143,,,,,,,,,,,,,,1.126,1,,,,,,,,,,,,,,m,,,,,,,,,,,,,,,,16,0,132.143,133.276,m,1,1.126,,[],[],[],[],[],[],[],133.276,135.276,135.276,135.277,[],[],[],[],[],[],[],,135.277,135.277,-0.145555556,-0.271111111,0,0,0,,0,15,15,148,1,4,word,SALINE,print,saline_p.png,,,,,,
,,,,32373,001,2025-12-04_12h01.06.915,HW_LDT_1,2024.2.4,MacIntel,76.92307692,,,,,,,,,,,,,,,,,,,,,135.278,135.475,135.476,135.976,,,,,,,,,,,,,,0.925,0,,,,,,,,,,,,,,m,,,,,,,,,,,,,,,,17,0,135.977,136.91,z,0,0.925,,[],[],[],[],[],[],[],136.91,138.909,138.909,138.91,[],[],[],[],[],[],[],,138.91,138.91,-0.145555556,-0.271111111,0,0,0,,0,16,16,99,1,4,word,DEBATE,cursive,debate_c.png,,,,,,
,,,,32373,001,2025-12-04_12h01.06.915,HW_LDT_1,2024.2.4,MacIntel,76.92307692,,,,,,,,,,,,,,,,,,,,,138.911,139.109,139.109,139.609,,,,,,,,,,,,,,0.961,1,,,,,,,,,,,,,,m,,,,,,,,,,,,,,,,18,0,139.61,140.575,m,1,0.961,,[],[],[],[],[],[],[],140.576,142.575,142.575,142.576,[],[],[],[],[],[],[],,142.576,142.576,-0.145555556,-0.271111111,0,0,0,,0,17,17,107,1,4,word,EVIDENT,print,evident_p.png,,,,,,
,,,,32373,001,2025-12-04_12h01.06.915,HW_LDT_1,2024.2.4,MacIntel,76.92307692,,,,,,,,,,,,,,,,,,,,,142.578,142.775,142.775,143.275,,,,,,,,,,,,,,1.015,1,,,,,,,,,,,,,,m,,,,,,,,,,,,,,,,19,0,143.275,144.292,m,1,1.015,,[],[],[],[],[],[],[],144.292,146.294,146.294,146.294,[],[],[],[],[],[],[],,146.294,146.294,-0.145555556,-0.271111111,0,0,0,,0,18,18,142,1,4,word,REMOTE,cursive,remote_c.png,,,,,,
,,,,32373,001,2025-12-04_12h01.06.915,HW_LDT_1,2024.2.4,MacIntel,76.92307692,,,,,,,,,,,,,,,,,,,,,146.295,146.493,146.493,146.993,,,,,,,,,,,,,,0.809,1,,,,,,,,,,,,,,m,,,,,,,,,,,,,,,,20,0,146.994,147.81,m,1,0.809,,[],[],[],[],[],[],[],147.81,149.809,149.809,149.809,[],[],[],[],[],[],[],,149.809,149.809,-0.145555556,-0.271111111,0,0,0,,0,19,19,111,1,4,word,INDICATE,print,indicate_p.png,,,,,,
,,,,32373,001,2025-12-04_12h01.06.915,HW_LDT_1,2024.2.4,MacIntel,76.92307692,,,,,,,,,,,,,,,,,,,,,149.81,149.998,149.998,150.51,,,,,,,,,,,,,,0.745,1,,,,,,,,,,,,,,m,,,,,,,,,,,,,,,,21,0,150.51,151.259,m,1,0.745,,[],[],[],[],[],[],[],151.259,153.259,153.259,153.26,[],[],[],[],[],[],[],,153.261,153.261,-0.145555556,-0.271111111,0,0,0,,0,20,20,115,1,4,word,LOGICAL,print,logical_p.png,,,,,,
,,,,32373,001,2025-12-04_12h01.06.915,HW_LDT_1,2024.2.4,MacIntel,76.92307692,,,,,,,,,,,,,,,,,,,,,153.262,153.46,153.46,153.96,,,,,,,,,,,,,,0.774,0,,,,,,,,,,,,,,z,,,,,,,,,,,,,,,,22,0,153.96,154.743,m,0,0.774,,[],[],[],[],[],[],[],154.743,156.742,156.742,156.743,[],[],[],[],[],[],[],,156.744,156.744,-0.145555556,-0.271111111,0,0,0,,0,21,21,66,1,4,TL,opmital,print,opmital_p.png,,,,,,
,,,,32373,001,2025-12-04_12h01.06.915,HW_LDT_1,2024.2.4,MacIntel,76.92307692,,,,,,,,,,,,,,,,,,,,,156.745,156.942,156.942,157.442,,,,,,,,,,,,,,0.81,1,,,,,,,,,,,,,,m,,,,,,,,,,,,,,,,23,0,157.443,158.26,m,1,0.81,,[],[],[],[],[],[],[],158.26,160.258,160.259,160.26,[],[],[],[],[],[],[],,160.26,160.26,-0.145555556,-0.271111111,0,0,0,,0,22,22,135,1,4,word,QUALITY,print,quality_p.png,,,,,,
,,,,32373,001,2025-12-04_12h01.06.915,HW_LDT_1,2024.2.4,MacIntel,76.92307692,,,,,,,,,,,,,,,,,,,,,160.261,160.46,160.46,160.959,,,,,,,,,,,,,,1.144,0,,,,,,,,,,,,,,m,,,,,,,,,,,,,,,,24,0,160.959,162.109,z,0,1.144,,[],[],[],[],[],[],[],162.109,164.109,164.109,164.11,[],[],[],[],[],[],[],,164.11,164.11,-0.145555556,-0.271111111,0,0,0,,0,23,23,87,1,4,word,CAFETERIA,cursive,cafeteria_c.png,,,,,,
,,,,32373,001,2025-12-04_12h01.06.915,HW_LDT_1,2024.2.4,MacIntel,76.92307692,,,,,,,,,,,,,,,,,,,,,164.11,164.308,164.308,164.808,,,,,,,,,,,,,,0.88,1,,,,,,,,,,,,,,z,,,,,,,,,,,,,,,,25,0,164.808,165.692,z,1,0.88,,[],[],[],[],[],[],[],165.692,167.692,167.693,167.693,[],[],[],[],[],[],[],,167.693,167.694,-0.145555556,-0.271111111,0,0,0,,0,24,24,0,1,4,RL,abanemy,print,abanemy_p.png,,,,,,
,,,,32373,001,2025-12-04_12h01.06.915,HW_LDT_1,2024.2.4,MacIntel,76.92307692,,,,,,,,,,,,,,,,,,,,,167.694,167.892,167.892,168.392,,,,,,,,,,,,,,0.857,0,,,,,,,,,,,,,,z,,,,,,,,,,,,,,,,26,1,168.392,169.26,m,0,0.857,,[],[],[],[],[],[],[],169.26,171.258,171.258,172.543,[],[],[],[],[],[],[],z,172.543,172.543,-0.145555556,-0.271111111,0,0,0,,0,25,25,51,1,4,TL,adsivory,cursive,adsivory_c.png,1.279,,,,,
,,,,32373,001,2025-12-04_12h01.06.915,HW_LDT_1,2024.2.4,MacIntel,76.92307692,,,,,,,,,,,,,,,,,,,,,172.544,172.742,172.742,173.242,,,,,,,,,,,,,,0.976,1,,,,,,,,,,,,,,m,,,,,,,,,,,,,,,,27,0,173.242,174.225,m,1,0.976,,[],[],[],[],[],[],[],174.225,176.224,176.224,176.225,[],[],[],[],[],[],[],,176.225,176.225,-0.145555556,-0.271111111,0,0,0,,0,26,26,100,1,4,word,DECADE,cursive,decade_c.png,,,,,,
,,,,32373,001,2025-12-04_12h01.06.915,HW_LDT_1,2024.2.4,MacIntel,76.92307692,,,,,,,,,,,,,,,,,,,,,176.226,176.427,176.427,176.924,,,,,,,,,,,,,,1.762,1,,,,,,,,,,,,,,z,,,,,,,,,,,,,,,,28,0,176.925,178.692,z,1,1.762,,[],[],[],[],[],[],[],178.693,180.694,180.694,180.695,[],[],[],[],[],[],[],,180.695,180.695,-0.145555556,-0.271111111,0,0,0,,0,27,27,45,1,4,RL,spetisic,cursive,spetisic_c.png,,,,,,
,,,,32373,001,2025-12-04_12h01.06.915,HW_LDT_1,2024.2.4,MacIntel,76.92307692,,,,,,,,,,,,,,,,,,,,,180.696,180.892,180.892,181.391,,,,,,,,,,,,,,0.816,1,,,,,,,,,,,,,,m,,,,,,,,,,,,,,,,29,0,181.391,182.209,m,1,0.816,,[],[],[],[],[],[],[],182.209,184.208,184.208,184.208,[],[],[],[],[],[],[],,184.208,184.208,-0.145555556,-0.271111111,0,0,0,,0,28,28,150,1,4,word,SENTIMENT,print,sentiment_p.png,,,,,,
,,,,32373,001,2025-12-04_12h01.06.915,HW_LDT_1,2024.2.4,MacIntel,76.92307692,,,,,,,,,,,,,,,,,,,,,184.209,184.409,184.409,184.909,,,,,,,,,,,,,,0.846,1,,,,,,,,,,,,,,z,,,,,,,,,,,,,,,,30,0,184.91,185.758,z,1,0.846,,[],[],[],[],[],[],[],185.758,187.758,187.758,187.758,[],[],[],[],[],[],[],,187.758,187.758,-0.145555556,-0.271111111,0,0,0,,0,29,29,25,1,4,RL,macise,print,macise_p.png,,,,,,
,,,,32373,001,2025-12-04_12h01.06.915,HW_LDT_1,2024.2.4,MacIntel,76.92307692,,,,,,,,,,,,,,,,,,,,,187.759,187.944,187.945,188.459,,,,,,,,,,,,,,1.347,1,,,,,,,,,,,,,,m,,,,,,,,,,,,,,,,31,0,188.46,189.81,m,1,1.347,,[],[],[],[],[],[],[],189.811,191.809,191.809,191.809,[],[],[],[],[],[],[],,191.809,191.81,-0.145555556,-0.271111111,0,0,0,,0,30,30,81,1,4,word,ADVISORY,cursive,advisory_c.png,,,,,,
,,,,32373,001,2025-12-04_12h01.06.915,HW_LDT_1,2024.2.4,MacIntel,76.92307692,,,,,,,,,,,,,,,,,,,,,191.81,192.009,192.009,192.509,,,,,,,,,,,,,,1.462,1,,,,,,,,,,,,,,z,,,,,,,,,,,,,,,,32,0,192.51,193.976,z,1,1.462,,[],[],[],[],[],[],[],193.976,195.975,195.975,195.975,[],[],[],[],[],[],[],,195.975,195.976,-0.145555556,-0.271111111,0,0,0,,0,31,31,14,1,4,RL,delahe,cursive,delahe_c.png,,,,,,
,,,,32373,001,2025-12-04_12h01.06.915,HW_LDT_1,2024.2.4,MacIntel,76.92307692,,,,,,,,,,,,,,,,,,,,,195.976,196.177,196.177,196.675,,,,,,,,,,,,,,1.377,1,,,,,,,,,,,,,,z,,,,,,,,,,,,,,,,33,0,196.676,198.059,z,1,1.377,,[],[],[],[],[],[],[],198.059,200.058,200.058,200.058,[],[],[],[],[],[],[],,200.059,200.059,-0.145555556,-0.271111111,0,0,0,,0,32,32,28,1,4,RL,mifikary,print,mifikary_p.png,,,,,,
,,,,32373,001,2025-12-04_12h01.06.915,HW_LDT_1,2024.2.4,MacIntel,76.92307692,,,,,,,,,,,,,,,,,,,,,200.059,200.264,200.264,200.759,,,,,,,,,,,,,,0.726,1,,,,,,,,,,,,,,z,,,,,,,,,,,,,,,,34,0,200.759,201.492,z,1,0.726,,[],[],[],[],[],[],[],201.493,203.492,203.492,203.492,[],[],[],[],[],[],[],,203.493,203.493,-0.145555556,-0.271111111,0,0,0,,0,33,33,9,1,4,RL,cafigal,print,cafigal_p.png,,,,,,
,,,,32373,001,2025-12-04_12h01.06.915,HW_LDT_1,2024.2.4,MacIntel,76.92307692,,,,,,,,,,,,,,,,,,,,,203.493,203.683,203.683,204.192,,,,,,,,,,,,,,0.845,1,,,,,,,,,,,,,,m,,,,,,,,,,,,,,,,35,0,204.193,205.042,m,1,0.845,,[],[],[],[],[],[],[],205.042,207.041,207.041,207.041,[],[],[],[],[],[],[],,207.041,207.041,-0.145555556,-0.271111111,0,0,0,,0,34,34,109,1,4,word,GRATEFUL,print,grateful_p.png,,,,,,
,,,,32373,001,2025-12-04_12h01.06.915,HW_LDT_1,2024.2.4,MacIntel,76.92307692,,,,,,,,,,,,,,,,,,,,,207.042,207.241,207.241,207.741,,,,,,,,,,,,,,0.96,1,,,,,,,,,,,,,,z,,,,,,,,,,,,,,,,36,0,207.741,208.708,z,1,0.96,,[],[],[],[],[],[],[],208.709,210.708,210.708,210.709,[],[],[],[],[],[],[],,210.709,210.709,-0.145555556,-0.271111111,0,0,0,,0,35,35,13,1,4,RL,crisival,cursive,crisival_c.png,,,,,,
,,,,32373,001,2025-12-04_12h01.06.915,HW_LDT_1,2024.2.4,MacIntel,76.92307692,,,,,,,,,,,,,,,,,,,,,210.71,210.908,210.908,211.408,,,,,,,,,,,,,,1.729,0,,,,,,,,,,,,,,m,,,,,,,,,,,,,,,,37,0,211.408,213.142,z,0,1.729,,[],[],[],[],[],[],[],213.142,215.14,215.14,215.141,[],[],[],[],[],[],[],,215.141,215.141,-0.145555556,-0.271111111,0,0,0,,0,36,36,98,1,4,word,CRIMINAL,cursive,criminal_c.png,,,,,,
,,,,32373,001,2025-12-04_12h01.06.915,HW_LDT_1,2024.2.4,MacIntel,76.92307692,,,,,,,,,,,,,,,,,,,,,215.141,215.331,215.331,215.841,,,,,,,,,,,,,,1.495,1,,,,,,,,,,,,,,z,,,,,,,,,,,,,,,,38,0,215.842,217.341,z,1,1.495,,[],[],[],[],[],[],[],217.342,219.342,219.342,219.342,[],[],[],[],[],[],[],,219.343,219.343,-0.145555556,-0.271111111,0,0,0,,0,37,37,23,1,4,RL,linefal,cursive,linefal_c.png,,,,,,
,,,,32373,001,2025-12-04_12h01.06.915,HW_LDT_1,2024.2.4,MacIntel,76.92307692,,,,,,,,,,,,,,,,,,,,,219.344,219.542,219.542,220.041,,,,,,,,,,,,,,2.91,1,,,,,,,,,,,,,,z,,,,,,,,,,,,,,,,39,0,220.043,222.958,z,1,2.91,,[],[],[],[],[],[],[],222.958,224.958,224.959,224.959,[],[],[],[],[],[],[],,224.959,224.959,-0.145555556,-0.271111111,0,0,0,,0,38,38,10,1,4,RL,carminal,cursive,carminal_c.png,,,,,,
,,,,32373,001,2025-12-04_12h01.06.915,HW_LDT_1,2024.2.4,MacIntel,76.92307692,,,,,,,,,,,,,,,,,,,,,224.96,225.158,225.158,225.658,,,,,,,,,,,,,,0.951,1,,,,,,,,,,,,,,z,,,,,,,,,,,,,,,,40,1,225.658,226.611,z,1,0.951,,[],[],[],[],[],[],[],226.611,228.609,228.609,230.026,[],[],[],[],[],[],[],m,230.026,230.027,-0.145555556,-0.271111111,0,0,0,,0,39,39,29,1,4,RL,motide,print,motide_p.png,1.416,,,,,
,,,,32373,001,2025-12-04_12h01.06.915,HW_LDT_1,2024.2.4,MacIntel,76.92307692,,,,,,,,,,,,,,,,,,,,,230.028,230.224,230.225,230.725,,,,,,,,,,,,,,0.898,1,,,,,,,,,,,,,,m,,,,,,,,,,,,,,,,41,1,230.725,231.624,m,1,0.898,,[],[],[],[],[],[],[],231.625,233.625,233.625,234.942,[],[],[],[],[],[],[],z,234.942,234.942,-0.145555556,-0.271111111,0,0,0,,0,40,40,122,1,4,word,MOBILE,print,mobile_p.png,1.308,,,,,
,,,,32373,001,2025-12-04_12h01.06.915,HW_LDT_1,2024.2.4,MacIntel,76.92307692,,,,,,,,,,,,,,,,,,,,,234.943,235.141,235.141,235.641,,,,,,,,,,,,,,2.295,0,,,,,,,,,,,,,,m,,,,,,,,,,,,,,,,42,0,235.642,237.941,z,0,2.295,,[],[],[],[],[],[],[],237.941,239.941,239.941,239.942,[],[],[],[],[],[],[],,239.942,239.942,-0.145555556,-0.271111111,0,0,0,,0,41,41,114,1,4,word,LOCATE,cursive,locate_c.png,,,,,,
,,,,32373,001,2025-12-04_12h01.06.915,HW_LDT_1,2024.2.4,MacIntel,76.92307692,,,,,,,,,,,,,,,,,,,,,239.943,240.141,240.142,240.642,,,,,,,,,,,,,,2.211,1,,,,,,,,,,,,,,z,,,,,,,,,,,,,,,,43,0,240.643,242.858,z,1,2.211,,[],[],[],[],[],[],[],242.858,244.857,244.857,244.857,[],[],[],[],[],[],[],,244.857,244.858,-0.145555556,-0.271111111,0,0,0,,0,42,42,16,1,4,RL,desifate,cursive,desifate_c.png,,,,,,
,,,,32373,001,2025-12-04_12h01.06.915,HW_LDT_1,2024.2.4,MacIntel,76.92307692,,,,,,,,,,,,,,,,,,,,,244.858,245.057,245.057,245.558,,,,,,,,,,,,,,2.312,1,,,,,,,,,,,,,,z,,,,,,,,,,,,,,,,44,0,245.558,247.874,z,1,2.312,,[],[],[],[],[],[],[],247.874,249.874,249.874,249.874,[],[],[],[],[],[],[],,249.874,249.874,-0.145555556,-0.271111111,0,0,0,,0,43,43,35,1,4,RL,probice,cursive,probice_c.png,,,,,,
,,,,32373,001,2025-12-04_12h01.06.915,HW_LDT_1,2024.2.4,MacIntel,76.92307692,,,,,,,,,,,,,,,,,,,,,249.875,250.075,250.075,250.574,,,,,,,,,,,,,,2.745,1,,,,,,,,,,,,,,z,,,,,,,,,,,,,,,,45,0,250.575,253.324,z,1,2.745,,[],[],[],[],[],[],[],253.325,255.325,255.325,255.325,[],[],[],[],[],[],[],,255.326,255.326,-0.145555556,-0.271111111,0,0,0,,0,44,44,32,1,4,RL,patisic,cursive,patisic_c.png,,,,,,
,,,,32373,001,2025-12-04_12h01.06.915,HW_LDT_1,2024.2.4,MacIntel,76.92307692,,,,,,,,,,,,,,,,,,,,,255.326,255.525,255.525,256.025,,,,,,,,,,,,,,2.442,1,,,,,,,,,,,,,,z,,,,,,,,,,,,,,,,46,0,256.026,258.475,z,1,2.442,,[],[],[],[],[],[],[],258.476,260.474,260.474,260.475,[],[],[],[],[],[],[],,260.475,260.475,-0.145555556,-0.271111111,0,0,0,,0,45,45,1,1,4,RL,afaneur,cursive,afaneur_c.png,,,,,,
,,,,32373,001,2025-12-04_12h01.06.915,HW_LDT_1,2024.2.4,MacIntel,76.92307692,,,,,,,,,,,,,,,,,,,,,260.476,260.674,260.674,261.173,,,,,,,,,,,,,,0.695,1,,,,,,,,,,,,,,m,,,,,,,,,,,,,,,,47,1,261.174,261.874,m,1,0.695,,[],[],[],[],[],[],[],261.874,263.875,263.875,265.792,[],[],[],[],[],[],[],m,265.792,265.792,-0.145555556,-0.271111111,0,0,0,,0,46,46,147,1,4,word,ROMANTIC,print,romantic_p.png,1.91,,,,,
,,,,32373,001,2025-12-04_12h01.06.915,HW_LDT_1,2024.2.4,MacIntel,76.92307692,,,,,,,,,,,,,,,,,,,,,265.793,265.99,265.991,266.491,,,,,,,,,,,,,,1.545,1,,,,,,,,,,,,,,z,,,,,,,,,,,,,,,,48,0,266.492,268.041,z,1,1.545,,[],[],[],[],[],[],[],268.041,270.04,270.04,270.041,[],[],[],[],[],[],[],,270.041,270.041,-0.145555556,-0.271111111,0,0,0,,0,47,47,71,1,4,TL,racidal,print,racidal_p.png,,,,,,
,,,,32373,001,2025-12-04_12h01.06.915,HW_LDT_1,2024.2.4,MacIntel,76.92307692,,,,,,,,,,,,,,,,,,,,,270.041,270.241,270.241,270.74,,,,,,,,,,,,,,0.962,1,,,,,,,,,,,,,,z,,,,,,,,,,,,,,,,49,0,270.74,271.707,z,1,0.962,,[],[],[],[],[],[],[],271.707,273.708,273.708,273.708,[],[],[],[],[],[],[],,273.708,273.708,-0.145555556,-0.271111111,0,0,0,,0,48,48,20,1,4,RL,gralekul,print,gralekul_p.png,,,,,,
,,,,32373,001,2025-12-04_12h01.06.915,HW_LDT_1,2024.2.4,MacIntel,76.92307692,,,,,,,,,,,,,,,,,,,,,273.708,273.896,273.896,274.408,,,,,,,,,,,,,,2.857,0,,,,,,,,,,,,,,z,,,,,,,,,,,,,,,,50,0,274.408,277.274,m,0,2.857,,[],[],[],[],[],[],[],277.274,279.274,279.274,279.275,[],[],[],[],[],[],[],,279.275,279.275,-0.145555556,-0.271111111,0,0,0,,0,49,49,18,1,4,RL,disluge,print,disluge_p.png,,,,,,
,,,,32373,001,2025-12-04_12h01.06.915,HW_LDT_1,2024.2.4,MacIntel,76.92307692,,,,,,,,,,,,,,,,,,,,,279.276,279.475,279.475,279.973,,,,,,,,,,,,,,1.224,1,,,,,,,,,,,,,,z,,,,,,,,,,,,,,,,51,0,279.974,281.207,z,1,1.224,,[],[],[],[],[],[],[],281.207,283.207,283.207,283.208,[],[],[],[],[],[],[],,283.208,283.208,-0.145555556,-0.271111111,0,0,0,,0,50,50,65,1,4,TL,orepator,print,orepator_p.png,,,,,,
,,,,32373,001,2025-12-04_12h01.06.915,HW_LDT_1,2024.2.4,MacIntel,76.92307692,,,,,,,,,,,,,,,,,,,,,283.209,283.407,283.407,283.908,,,,,,,,,,,,,,0.975,1,,,,,,,,,,,,,,m,,,,,,,,,,,,,,,,52,1,283.909,284.89,m,1,0.975,,[],[],[],[],[],[],[],284.89,286.89,286.89,288.042,[],[],[],[],[],[],[],m,288.042,288.042,-0.145555556,-0.271111111,0,0,0,,0,51,51,95,1,4,word,COMEDY,print,comedy_p.png,1.142,,,,,
,,,,32373,001,2025-12-04_12h01.06.915,HW_LDT_1,2024.2.4,MacIntel,76.92307692,,,,,,,,,,,,,,,,,,,,,288.042,288.242,288.242,288.745,,,,,,,,,,,,,,2.627,1,,,,,,,,,,,,,,z,,,,,,,,,,,,,,,,53,0,288.745,291.374,z,1,2.627,,[],[],[],[],[],[],[],291.374,293.374,293.374,293.374,[],[],[],[],[],[],[],,293.375,293.375,-0.145555556,-0.271111111,0,0,0,,0,52,52,12,1,4,RL,conbicer,cursive,conbicer_c.png,,,,,,
,,,,32373,001,2025-12-04_12h01.06.915,HW_LDT_1,2024.2.4,MacIntel,76.92307692,,,,,,,,,,,,,,,,,,,,,293.375,293.574,293.575,294.074,,,,,,,,,,,,,,1.857,1,,,,,,,,,,,,,,z,,,,,,,,,,,,,,,,54,0,294.074,295.94,z,1,1.857,,[],[],[],[],[],[],[],295.94,297.943,297.943,297.943,[],[],[],[],[],[],[],,297.943,297.943,-0.145555556,-0.271111111,0,0,0,,0,53,53,50,1,4,RL,vecelan,cursive,vecelan_c.png,,,,,,
,,,,32373,001,2025-12-04_12h01.06.915,HW_LDT_1,2024.2.4,MacIntel,76.92307692,,,,,,,,,,,,,,,,,,,,,297.944,298.14,298.14,298.641,,,,,,,,,,,,,,2.078,1,,,,,,,,,,,,,,z,,,,,,,,,,,,,,,,55,0,298.641,300.723,z,1,2.078,,[],[],[],[],[],[],[],300.723,302.724,302.725,302.725,[],[],[],[],[],[],[],,302.725,302.725,-0.145555556,-0.271111111,0,0,0,,0,54,54,22,1,4,RL,linedal,cursive,linedal_c.png,,,,,,
,,,,32373,001,2025-12-04_12h01.06.915,HW_LDT_1,2024.2.4,MacIntel,76.92307692,,,,,,,,,,,,,,,,,,,,,302.725,302.923,302.923,303.424,,,,,,,,,,,,,,2.662,1,,,,,,,,,,,,,,z,,,,,,,,,,,,,,,,56,0,303.424,306.091,z,1,2.662,,[],[],[],[],[],[],[],306.091,308.091,308.091,308.091,[],[],[],[],[],[],[],,308.091,308.091,-0.145555556,-0.271111111,0,0,0,,0,55,55,49,1,4,RL,vesofity,cursive,vesofity_c.png,,,,,,
,,,,32373,001,2025-12-04_12h01.06.915,HW_LDT_1,2024.2.4,MacIntel,76.92307692,,,,,,,,,,,,,,,,,,,,,308.092,308.29,308.29,308.791,,,,,,,,,,,,,,1.195,1,,,,,,,,,,,,,,z,,,,,,,,,,,,,,,,57,0,308.791,309.991,z,1,1.195,,[],[],[],[],[],[],[],309.991,311.99,311.99,311.99,[],[],[],[],[],[],[],,311.99,311.99,-0.145555556,-0.271111111,0,0,0,,0,56,56,69,1,4,TL,quafily,print,quafily_p.png,,,,,,
,,,,32373,001,2025-12-04_12h01.06.915,HW_LDT_1,2024.2.4,MacIntel,76.92307692,,,,,,,,,,,,,,,,,,,,,311.991,312.192,312.192,312.69,,,,,,,,,,,,,,2.127,0,,,,,,,,,,,,,,z,,,,,,,,,,,,,,,,58,0,312.691,314.824,m,0,2.127,,[],[],[],[],[],[],[],314.824,316.824,316.824,316.824,[],[],[],[],[],[],[],,316.824,316.824,-0.145555556,-0.271111111,0,0,0,,0,57,57,41,1,4,RL,rebicent,cursive,rebicent_c.png,,,,,,
,,,,32373,001,2025-12-04_12h01.06.915,HW_LDT_1,2024.2.4,MacIntel,76.92307692,,,,,,,,,,,,,,,,,,,,,316.825,317.024,317.024,317.523,,,,,,,,,,,,,,0.862,1,,,,,,,,,,,,,,m,,,,,,,,,,,,,,,,59,0,317.524,318.391,m,1,0.862,,[],[],[],[],[],[],[],318.391,320.391,320.391,320.391,[],[],[],[],[],[],[],,320.391,320.391,-0.145555556,-0.271111111,0,0,0,,0,58,58,140,1,4,word,RELATIVE,print,relative_p.png,,,,,,
,,,,32373,001,2025-12-04_12h01.06.915,HW_LDT_1,2024.2.4,MacIntel,76.92307692,,,,,,,,,,,,,,,,,,,,,320.392,320.589,320.589,321.089,,,,,,,,,,,,,,1.575,1,,,,,,,,,,,,,,m,,,,,,,,,,,,,,,,60,1,321.089,322.674,m,1,1.575,,[],[],[],[],[],[],[],322.674,324.673,324.673,326.056,[],[],[],[],[],[],[],z,326.056,326.057,-0.145555556,-0.271111111,0,0,0,,0,59,59,133,1,4,word,PROVIDE,cursive,provide_c.png,1.375,,,,,
,,,,32373,001,2025-12-04_12h01.06.915,HW_LDT_1,2024.2.4,MacIntel,76.92307692,,,,,,,,,,,,,,,,,,,,,326.059,326.257,326.257,326.757,,,,,,,,,,,,,,1.077,1,,,,,,,,,,,,,,z,,,,,,,,,,,,,,,,61,0,326.757,327.84,z,1,1.077,,[],[],[],[],[],[],[],327.84,329.84,329.84,329.841,[],[],[],[],[],[],[],,329.841,329.841,-0.145555556,-0.271111111,0,0,0,,0,60,60,7,1,4,RL,casena,print,casena_p.png,,,,,,
,,,,32373,001,2025-12-04_12h01.06.915,HW_LDT_1,2024.2.4,MacIntel,76.92307692,,,,,,,,,,,,,,,,,,,,,329.841,330.039,330.039,330.54,,,,,,,,,,,,,,2.662,1,,,,,,,,,,,,,,z,,,,,,,,,,,,,,,,62,0,330.54,333.206,z,1,2.662,,[],[],[],[],[],[],[],333.206,335.206,335.206,335.208,[],[],[],[],[],[],[],,335.208,335.208,-0.145555556,-0.271111111,0,0,0,,0,61,61,78,1,4,TL,stragety,print,stragety_p.png,,,,,,
,,,,32373,001,2025-12-04_12h01.06.915,HW_LDT_1,2024.2.4,MacIntel,76.92307692,,,,,,,,,,,,,,,,,,,,,335.208,335.409,335.409,335.907,,,,,,,,,,,,,,1.113,1,,,,,,,,,,,,,,z,,,,,,,,,,,,,,,,63,1,335.907,337.023,z,1,1.113,,[],[],[],[],[],[],[],337.023,339.022,339.022,340.356,[],[],[],[],[],[],[],m,340.356,340.356,-0.145555556,-0.271111111,0,0,0,,0,62,62,60,1,4,TL,hetirage,print,hetirage_p.png,1.331,,,,,
,,,,32373,001,2025-12-04_12h01.06.915,HW_LDT_1,2024.2.4,MacIntel,76.92307692,,,,,,,,,,,,,,,,,,,,,340.357,340.545,340.545,341.056,,,,,,,,,,,,,,1.246,1,,,,,,,,,,,,,,z,,,,,,,,,,,,,,,,64,0,341.057,342.306,z,1,1.246,,[],[],[],[],[],[],[],342.306,344.306,344.306,344.306,[],[],[],[],[],[],[],,344.306,344.306,-0.145555556,-0.271111111,0,0,0,,0,63,63,64,1,4,TL,moredate,print,moredate_p.png,,,,,,
,,,,32373,001,2025-12-04_12h01.06.915,HW_LDT_1,2024.2.4,MacIntel,76.92307692,,,,,,,,,,,,,,,,,,,,,344.307,344.507,344.507,345.009,,,,,,,,,,,,,,0.791,1,,,,,,,,,,,,,,m,,,,,,,,,,,,,,,,65,0,345.009,345.806,m,1,0.791,,[],[],[],[],[],[],[],345.807,347.807,347.807,347.807,[],[],[],[],[],[],[],,347.807,347.807,-0.145555556,-0.271111111,0,0,0,,0,64,64,145,1,4,word,RESUME,print,resume_p.png,,,,,,
,,,,32373,001,2025-12-04_12h01.06.915,HW_LDT_1,2024.2.4,MacIntel,76.92307692,,,,,,,,,,,,,,,,,,,,,347.807,348.006,348.006,348.507,,,,,,,,,,,,,,5.411,1,,,,,,,,,,,,,,z,,,,,,,,,,,,,,,,66,0,348.507,353.922,z,1,5.411,,[],[],[],[],[],[],[],353.922,355.922,355.922,355.922,[],[],[],[],[],[],[],,355.922,355.922,-0.145555556,-0.271111111,0,0,0,,0,65,65,56,1,4,TL,donimant,cursive,donimant_c.png,,,,,,
,,,,32373,001,2025-12-04_12h01.06.915,HW_LDT_1,2024.2.4,MacIntel,76.92307692,,,,,,,,,,,,,,,,,,,,,355.923,356.107,356.107,356.623,,,,,,,,,,,,,,1.044,1,,,,,,,,,,,,,,m,,,,,,,,,,,,,,,,67,0,356.623,357.674,m,1,1.044,,[],[],[],[],[],[],[],357.674,359.674,359.674,359.674,[],[],[],[],[],[],[],,359.674,359.674,-0.145555556,-0.271111111,0,0,0,,0,66,66,126,1,4,word,OPTIMAL,print,optimal_p.png,,,,,,
,,,,32373,001,2025-12-04_12h01.06.915,HW_LDT_1,2024.2.4,MacIntel,76.92307692,,,,,,,,,,,,,,,,,,,,,359.675,359.873,359.873,360.373,,,,,,,,,,,,,,6.593,1,,,,,,,,,,,,,,m,,,,,,,,,,,,,,,,68,0,360.374,366.973,m,1,6.593,,[],[],[],[],[],[],[],366.973,368.973,368.973,368.974,[],[],[],[],[],[],[],,368.974,368.974,-0.145555556,-0.271111111,0,0,0,,0,67,67,151,1,4,word,SPECIFIC,cursive,specific_c.png,,,,,,
,,,,32373,001,2025-12-04_12h01.06.915,HW_LDT_1,2024.2.4,MacIntel,76.92307692,,,,,,,,,,,,,,,,,,,,,368.974,369.172,369.172,369.673,,,,,,,,,,,,,,0.981,1,,,,,,,,,,,,,,z,,,,,,,,,,,,,,,,69,0,369.673,370.655,z,1,0.981,,[],[],[],[],[],[],[],370.655,372.655,372.655,372.655,[],[],[],[],[],[],[],,372.655,372.656,-0.145555556,-0.271111111,0,0,0,,0,68,68,47,1,4,RL,stopave,print,stopave_p.png,,,,,,
,,,,32373,001,2025-12-04_12h01.06.915,HW_LDT_1,2024.2.4,MacIntel,76.92307692,,,,,,,,,,,,,,,,,,,,,372.656,372.855,372.855,373.357,,,,,,,,,,,,,,2.545,1,,,,,,,,,,,,,,m,,,,,,,,,,,,,,,,70,0,373.357,375.906,m,1,2.545,,[],[],[],[],[],[],[],375.906,377.906,377.906,377.906,[],[],[],[],[],[],[],,377.906,377.906,-0.145555556,-0.271111111,0,0,0,,0,69,69,82,1,4,word,AMATEUR,cursive,amateur_c.png,,,,,,
,,,,32373,001,2025-12-04_12h01.06.915,HW_LDT_1,2024.2.4,MacIntel,76.92307692,,,,,,,,,,,,,,,,,,,,,377.907,378.095,378.095,378.606,,,,,,,,,,,,,,2.644,1,,,,,,,,,,,,,,z,,,,,,,,,,,,,,,,71,0,378.607,381.257,z,1,2.644,,[],[],[],[],[],[],[],381.257,383.255,383.255,383.255,[],[],[],[],[],[],[],,383.255,383.255,-0.145555556,-0.271111111,0,0,0,,0,70,70,59,1,4,TL,fornute,cursive,fornute_c.png,,,,,,
,,,,32373,001,2025-12-04_12h01.06.915,HW_LDT_1,2024.2.4,MacIntel,76.92307692,,,,,,,,,,,,,,,,,,,,,383.256,383.457,383.457,383.956,,,,,,,,,,,,,,1.095,1,,,,,,,,,,,,,,m,,,,,,,,,,,,,,,,72,1,383.956,385.056,m,1,1.095,,[],[],[],[],[],[],[],385.057,387.055,387.055,388.09,[],[],[],[],[],[],[],m,388.09,388.09,-0.145555556,-0.271111111,0,0,0,,0,71,71,120,1,4,word,MILITARY,print,military_p.png,1.031,,,,,
,,,,32373,001,2025-12-04_12h01.06.915,HW_LDT_1,2024.2.4,MacIntel,76.92307692,,,,,,,,,,,,,,,,,,,,,388.09,388.295,388.295,388.79,,,,,,,,,,,,,,0.693,1,,,,,,,,,,,,,,m,,,,,,,,,,,,,,,,73,0,388.79,389.49,m,1,0.693,,[],[],[],[],[],[],[],389.49,391.49,391.49,391.49,[],[],[],[],[],[],[],,391.49,391.49,-0.145555556,-0.271111111,0,0,0,,0,72,72,119,1,4,word,MEMORY,print,memory_p.png,,,,,,
,,,,32373,001,2025-12-04_12h01.06.915,HW_LDT_1,2024.2.4,MacIntel,76.92307692,,,,,,,,,,,,,,,,,,,,,391.491,391.689,391.689,392.19,,,,,,,,,,,,,,1.612,1,,,,,,,,,,,,,,m,,,,,,,,,,,,,,,,74,1,392.19,393.806,m,1,1.612,,[],[],[],[],[],[],[],393.806,395.806,395.806,396.872,[],[],[],[],[],[],[],z,396.872,396.873,-0.145555556,-0.271111111,0,0,0,,0,73,73,144,1,4,word,RESIDENT,cursive,resident_c.png,1.065,,,,,
,,,,32373,001,2025-12-04_12h01.06.915,HW_LDT_1,2024.2.4,MacIntel,76.92307692,,,,,,,,,,,,,,,,,,,,,396.874,397.073,397.073,397.574,,,,,,,,,,,,,,1.774,0,,,,,,,,,,,,,,m,,,,,,,,,,,,,,,,75,0,397.575,399.357,z,0,1.774,,[],[],[],[],[],[],[],399.357,401.355,401.355,401.355,[],[],[],[],[],[],[],,401.355,401.356,-0.145555556,-0.271111111,0,0,0,,0,74,74,124,1,4,word,NUMERICAL,cursive,numerical_c.png,,,,,,
,,,,32373,001,2025-12-04_12h01.06.915,HW_LDT_1,2024.2.4,MacIntel,76.92307692,,,,,,,,,,,,,,,,,,,,,401.356,401.54,401.54,402.041,,,,,,,,,,,,,,2.542,1,,,,,,,,,,,,,,z,,,,,,,,,,,,,,,,76,0,402.041,404.589,z,1,2.542,,[],[],[],[],[],[],[],404.589,406.588,406.588,406.589,[],[],[],[],[],[],[],,406.589,406.589,-0.145555556,-0.271111111,0,0,0,,0,75,75,26,1,4,RL,mesibine,cursive,mesibine_c.png,,,,,,
,,,,32373,001,2025-12-04_12h01.06.915,HW_LDT_1,2024.2.4,MacIntel,76.92307692,,,,,,,,,,,,,,,,,,,,,406.59,406.789,406.789,407.289,,,,,,,,,,,,,,2.661,1,,,,,,,,,,,,,,z,,,,,,,,,,,,,,,,77,1,407.289,409.956,z,1,2.661,,[],[],[],[],[],[],[],409.956,411.956,411.956,412.923,[],[],[],[],[],[],[],m,412.923,412.923,-0.145555556,-0.271111111,0,0,0,,0,76,76,68,1,4,TL,prosopal,print,prosopal_p.png,0.961,,,,,
,,,,32373,001,2025-12-04_12h01.06.915,HW_LDT_1,2024.2.4,MacIntel,76.92307692,,,,,,,,,,,,,,,,,,,,,412.924,413.123,413.123,413.622,,,,,,,,,,,,,,4.163,1,,,,,,,,,,,,,,z,,,,,,,,,,,,,,,,78,0,413.624,417.79,z,1,4.163,,[],[],[],[],[],[],[],417.79,419.778,419.779,419.779,[],[],[],[],[],[],[],,419.779,419.779,-0.145555556,-0.271111111,0,0,0,,0,77,77,39,1,4,RL,relone,cursive,relone_c.png,,,,,,
,,,,32373,001,2025-12-04_12h01.06.915,HW_LDT_1,2024.2.4,MacIntel,76.92307692,,,,,,,,,,,,,,,,,,,,,419.78,419.973,419.973,420.472,,,,,,,,,,,,,,3.048,1,,,,,,,,,,,,,,z,,,,,,,,,,,,,,,,79,0,420.473,423.521,z,1,3.048,,[],[],[],[],[],[],[],423.522,425.522,425.522,425.523,[],[],[],[],[],[],[],,425.523,425.523,-0.145555556,-0.271111111,0,0,0,,0,78,78,2,1,4,RL,asiral,cursive,asiral_c.png,,,,,,
,,,,32373,001,2025-12-04_12h01.06.915,HW_LDT_1,2024.2.4,MacIntel,76.92307692,,,,,,,,,,,,,,,,,,,,,425.524,425.723,425.723,426.221,,,,,,,,,,,,,,1.996,1,,,,,,,,,,,,,,m,,,,,,,,,,,,,,,,80,0,426.222,428.222,m,1,1.996,,[],[],[],[],[],[],[],428.222,430.223,430.223,430.223,[],[],[],[],[],[],[],,430.223,467.654,-0.145555556,-0.271111111,0,0,0,space,0,79,79,159,1,4,word,VETERAN,cursive,veteran_c.png,,,37.402,,,
,,,,32373,001,2025-12-04_12h01.06.915,HW_LDT_1,2024.2.4,MacIntel,76.92307692,,,,,,,,,,,,,,,,,,,,,467.655,467.854,467.854,468.355,,,,,,,,,,,,,,2.008,1,,,,,,,,,,,,,,m,,,,,,,,,,,,,,,,81,0,468.357,470.372,m,1,2.008,,[],[],[],[],[],[],[],470.372,472.371,472.371,472.372,[],[],[],[],[],[],[],,472.372,472.372,-0.145555556,-0.271111111,0,0,0,,0,80,80,131,1,4,word,POPULAR,print,popular_p.png,,,,,,
,,,,32373,001,2025-12-04_12h01.06.915,HW_LDT_1,2024.2.4,MacIntel,76.92307692,,,,,,,,,,,,,,,,,,,,,472.373,472.571,472.571,473.074,,,,,,,,,,,,,,1.241,1,,,,,,,,,,,,,,m,,,,,,,,,,,,,,,,82,0,473.075,474.322,m,1,1.241,,[],[],[],[],[],[],[],474.322,476.321,476.321,476.321,[],[],[],[],[],[],[],,476.321,476.321,-0.145555556,-0.271111111,0,0,0,,0,81,81,152,1,4,word,SPECIMEN,cursive,specimen_c.png,,,,,,
,,,,32373,001,2025-12-04_12h01.06.915,HW_LDT_1,2024.2.4,MacIntel,76.92307692,,,,,,,,,,,,,,,,,,,,,476.322,476.522,476.522,477.021,,,,,,,,,,,,,,1.328,1,,,,,,,,,,,,,,m,,,,,,,,,,,,,,,,83,0,477.022,478.354,m,1,1.328,,[],[],[],[],[],[],[],478.354,480.354,480.354,480.354,[],[],[],[],[],[],[],,480.354,480.354,-0.145555556,-0.271111111,0,0,0,,0,82,82,88,1,4,word,CAMERA,print,camera_p.png,,,,,,
,,,,32373,001,2025-12-04_12h01.06.915,HW_LDT_1,2024.2.4,MacIntel,76.92307692,,,,,,,,,,,,,,,,,,,,,480.355,480.554,480.554,481.056,,,,,,,,,,,,,,0.762,1,,,,,,,,,,,,,,m,,,,,,,,,,,,,,,,84,0,481.056,481.82,m,1,0.762,,[],[],[],[],[],[],[],481.821,483.821,483.821,483.821,[],[],[],[],[],[],[],,483.821,483.821,-0.145555556,-0.271111111,0,0,0,,0,83,83,90,1,4,word,CAPITAL,print,capital_p.png,,,,,,
,,,,32373,001,2025-12-04_12h01.06.915,HW_LDT_1,2024.2.4,MacIntel,76.92307692,,,,,,,,,,,,,,,,,,,,,483.822,484.022,484.022,484.521,,,,,,,,,,,,,,0.941,1,,,,,,,,,,,,,,z,,,,,,,,,,,,,,,,85,0,484.522,485.471,z,1,0.941,,[],[],[],[],[],[],[],485.471,487.471,487.471,487.471,[],[],[],[],[],[],[],,487.471,487.471,-0.145555556,-0.271111111,0,0,0,,0,84,84,54,1,4,TL,codemy,print,codemy_p.png,,,,,,
,,,,32373,001,2025-12-04_12h01.06.915,HW_LDT_1,2024.2.4,MacIntel,76.92307692,,,,,,,,,,,,,,,,,,,,,487.472,487.671,487.671,488.16,,,,,,,,,,,,,,1.326,1,,,,,,,,,,,,,,m,,,,,,,,,,,,,,,,86,0,488.16,489.487,m,1,1.326,,[],[],[],[],[],[],[],489.487,491.488,491.488,491.489,[],[],[],[],[],[],[],,491.489,491.489,-0.145555556,-0.271111111,0,0,0,,0,85,85,94,1,4,word,CLINICAL,print,clinical_p.png,,,,,,
,,,,32373,001,2025-12-04_12h01.06.915,HW_LDT_1,2024.2.4,MacIntel,76.92307692,,,,,,,,,,,,,,,,,,,,,491.49,491.687,491.687,492.187,,,,,,,,,,,,,,2.375,1,,,,,,,,,,,,,,z,,,,,,,,,,,,,,,,87,0,492.187,494.572,z,1,2.375,,[],[],[],[],[],[],[],494.572,496.571,496.572,496.572,[],[],[],[],[],[],[],,496.572,496.572,-0.145555556,-0.271111111,0,0,0,,0,86,86,46,1,4,RL,skofen,cursive,skofen_c.png,,,,,,
,,,,32373,001,2025-12-04_12h01.06.915,HW_LDT_1,2024.2.4,MacIntel,76.92307692,,,,,,,,,,,,,,,,,,,,,496.573,496.772,496.772,497.272,,,,,,,,,,,,,,1.879,1,,,,,,,,,,,,,,z,,,,,,,,,,,,,,,,88,0,497.272,499.155,z,1,1.879,,[],[],[],[],[],[],[],499.155,501.154,501.154,501.155,[],[],[],[],[],[],[],,501.155,501.155,-0.145555556,-0.271111111,0,0,0,,0,87,87,53,1,4,TL,cemerony,print,cemerony_p.png,,,,,,
,,,,32373,001,2025-12-04_12h01.06.915,HW_LDT_1,2024.2.4,MacIntel,76.92307692,,,,,,,,,,,,,,,,,,,,,501.155,501.353,501.353,501.855,,,,,,,,,,,,,,2.927,1,,,,,,,,,,,,,,z,,,,,,,,,,,,,,,,89,0,501.855,504.789,z,1,2.927,,[],[],[],[],[],[],[],504.789,506.787,506.787,506.788,[],[],[],[],[],[],[],,506.789,506.789,-0.145555556,-0.271111111,0,0,0,,0,88,88,33,1,4,RL,pamest,cursive,pamest_c.png,,,,,,
,,,,32373,001,2025-12-04_12h01.06.915,HW_LDT_1,2024.2.4,MacIntel,76.92307692,,,,,,,,,,,,,,,,,,,,,506.789,506.988,506.988,507.487,,,,,,,,,,,,,,1.795,1,,,,,,,,,,,,,,m,,,,,,,,,,,,,,,,90,1,507.488,509.288,m,1,1.795,,[],[],[],[],[],[],[],509.288,511.287,511.287,512.654,[],[],[],[],[],[],[],z,512.654,512.654,-0.145555556,-0.271111111,0,0,0,,0,89,89,104,1,4,word,DOMINANT,cursive,dominant_c.png,1.363,,,,,
,,,,32373,001,2025-12-04_12h01.06.915,HW_LDT_1,2024.2.4,MacIntel,76.92307692,,,,,,,,,,,,,,,,,,,,,512.655,512.859,512.859,513.354,,,,,,,,,,,,,,1.21,1,,,,,,,,,,,,,,m,,,,,,,,,,,,,,,,91,0,513.355,514.571,m,1,1.21,,[],[],[],[],[],[],[],514.571,516.571,516.571,516.571,[],[],[],[],[],[],[],,516.572,516.572,-0.145555556,-0.271111111,0,0,0,,0,90,90,86,1,4,word,BESIDE,print,beside_p.png,,,,,,
,,,,32373,001,2025-12-04_12h01.06.915,HW_LDT_1,2024.2.4,MacIntel,76.92307692,,,,,,,,,,,,,,,,,,,,,516.572,516.77,516.771,517.27,,,,,,,,,,,,,,1.045,1,,,,,,,,,,,,,,z,,,,,,,,,,,,,,,,92,0,517.271,518.32,z,1,1.045,,[],[],[],[],[],[],[],518.32,520.32,520.32,520.32,[],[],[],[],[],[],[],,520.32,520.32,-0.145555556,-0.271111111,0,0,0,,0,91,91,79,1,4,TL,tritube,print,tritube_p.png,,,,,,
,,,,32373,001,2025-12-04_12h01.06.915,HW_LDT_1,2024.2.4,MacIntel,76.92307692,,,,,,,,,,,,,,,,,,,,,520.321,520.52,520.521,521.021,,,,,,,,,,,,,,6.414,1,,,,,,,,,,,,,,z,,,,,,,,,,,,,,,,93,0,521.021,527.436,z,1,6.414,,[],[],[],[],[],[],[],527.436,529.437,529.437,529.438,[],[],[],[],[],[],[],,529.438,529.438,-0.145555556,-0.271111111,0,0,0,,0,92,92,34,1,4,RL,posity,cursive,posity_c.png,,,,,,
,,,,32373,001,2025-12-04_12h01.06.915,HW_LDT_1,2024.2.4,MacIntel,76.92307692,,,,,,,,,,,,,,,,,,,,,529.438,529.637,529.637,530.138,,,,,,,,,,,,,,1.694,1,,,,,,,,,,,,,,z,,,,,,,,,,,,,,,,94,1,530.138,531.837,z,1,1.694,,[],[],[],[],[],[],[],531.838,533.837,533.837,535.903,[],[],[],[],[],[],[],m,535.904,535.904,-0.145555556,-0.271111111,0,0,0,,0,93,93,74,1,4,TL,rerite,print,rerite_p.png,2.062,,,,,
,,,,32373,001,2025-12-04_12h01.06.915,HW_LDT_1,2024.2.4,MacIntel,76.92307692,,,,,,,,,,,,,,,,,,,,,535.905,536.105,536.105,536.604,,,,,,,,,,,,,,2.127,1,,,,,,,,,,,,,,m,,,,,,,,,,,,,,,,95,0,536.604,538.738,m,1,2.127,,[],[],[],[],[],[],[],538.738,540.738,540.738,540.738,[],[],[],[],[],[],[],,540.738,540.738,-0.145555556,-0.271111111,0,0,0,,0,94,94,155,1,4,word,STRATEGY,print,strategy_p.png,,,,,,
,,,,32373,001,2025-12-04_12h01.06.915,HW_LDT_1,2024.2.4,MacIntel,76.92307692,,,,,,,,,,,,,,,,,,,,,540.739,540.937,540.938,541.437,,,,,,,,,,,,,,0.816,1,,,,,,,,,,,,,,m,,,,,,,,,,,,,,,,96,0,541.437,542.254,m,1,0.816,,[],[],[],[],[],[],[],542.254,544.254,544.254,544.255,[],[],[],[],[],[],[],,544.255,544.255,-0.145555556,-0.271111111,0,0,0,,0,95,95,143,1,4,word,REMOVAL,print,removal_p.png,,,,,,
,,,,32373,001,2025-12-04_12h01.06.915,HW_LDT_1,2024.2.4,MacIntel,76.92307692,,,,,,,,,,,,,,,,,,,,,544.255,544.454,544.454,544.953,,,,,,,,,,,,,,5.643,0,,,,,,,,,,,,,,z,,,,,,,,,,,,,,,,97,0,544.954,550.604,m,0,5.643,,[],[],[],[],[],[],[],550.604,552.604,552.604,552.604,[],[],[],[],[],[],[],,552.604,552.605,-0.145555556,-0.271111111,0,0,0,,0,96,96,15,1,4,RL,debave,cursive,debave_c.png,,,,,,
,,,,32373,001,2025-12-04_12h01.06.915,HW_LDT_1,2024.2.4,MacIntel,76.92307692,,,,,,,,,,,,,,,,,,,,,552.605,552.803,552.803,553.304,,,,,,,,,,,,,,1.112,1,,,,,,,,,,,,,,z,,,,,,,,,,,,,,,,98,0,553.305,554.42,z,1,1.112,,[],[],[],[],[],[],[],554.42,556.421,556.421,556.421,[],[],[],[],[],[],[],,556.421,556.421,-0.145555556,-0.271111111,0,0,0,,0,97,97,31,1,4,RL,orimipal,print,orimipal_p.png,,,,,,
,,,,32373,001,2025-12-04_12h01.06.915,HW_LDT_1,2024.2.4,MacIntel,76.92307692,,,,,,,,,,,,,,,,,,,,,556.422,556.62,556.62,557.12,,,,,,,,,,,,,,1.378,1,,,,,,,,,,,,,,m,,,,,,,,,,,,,,,,99,0,557.12,558.504,m,1,1.378,,[],[],[],[],[],[],[],558.504,560.505,560.505,560.505,[],[],[],[],[],[],[],,560.505,560.505,-0.145555556,-0.271111111,0,0,0,,0,98,98,97,1,4,word,COVERAGE,cursive,coverage_c.png,,,,,,
,,,,32373,001,2025-12-04_12h01.06.915,HW_LDT_1,2024.2.4,MacIntel,76.92307692,,,,,,,,,,,,,,,,,,,,,560.506,560.703,560.703,561.205,,,,,,,,,,,,,,0.913,1,,,,,,,,,,,,,,z,,,,,,,,,,,,,,,,100,0,561.205,562.119,z,1,0.913,,[],[],[],[],[],[],[],562.119,564.12,564.12,564.12,[],[],[],[],[],[],[],,564.12,564.12,-0.145555556,-0.271111111,0,0,0,,0,99,99,5,1,4,RL,bebine,print,bebine_p.png,,,,,,
,,,,32373,001,2025-12-04_12h01.06.915,HW_LDT_1,2024.2.4,MacIntel,76.92307692,,,,,,,,,,,,,,,,,,,,,564.121,564.32,564.32,564.821,,,,,,,,,,,,,,0.928,1,,,,,,,,,,,,,,m,,,,,,,,,,,,,,,,101,0,564.821,565.753,m,1,0.928,,[],[],[],[],[],[],[],565.753,567.753,567.753,567.754,[],[],[],[],[],[],[],,567.754,567.754,-0.145555556,-0.271111111,0,0,0,,0,100,100,134,1,4,word,QUALIFY,print,qualify_p.png,,,,,,
,,,,32373,001,2025-12-04_12h01.06.915,HW_LDT_1,2024.2.4,MacIntel,76.92307692,,,,,,,,,,,,,,,,,,,,,567.755,567.953,567.953,568.453,,,,,,,,,,,,,,1.233,1,,,,,,,,,,,,,,m,,,,,,,,,,,,,,,,102,0,568.453,569.686,m,1,1.233,,[],[],[],[],[],[],[],569.686,571.687,571.687,571.687,[],[],[],[],[],[],[],,571.687,571.688,-0.145555556,-0.271111111,0,0,0,,0,101,101,125,1,4,word,OPERATOR,print,operator_p.png,,,,,,
,,,,32373,001,2025-12-04_12h01.06.915,HW_LDT_1,2024.2.4,MacIntel,76.92307692,,,,,,,,,,,,,,,,,,,,,571.688,571.888,571.888,572.387,,,,,,,,,,,,,,1.061,1,,,,,,,,,,,,,,z,,,,,,,,,,,,,,,,103,0,572.388,573.454,z,1,1.061,,[],[],[],[],[],[],[],573.454,575.453,575.453,575.453,[],[],[],[],[],[],[],,575.454,575.454,-0.145555556,-0.271111111,0,0,0,,0,102,102,27,1,4,RL,menowy,print,menowy_p.png,,,,,,
,,,,32373,001,2025-12-04_12h01.06.915,HW_LDT_1,2024.2.4,MacIntel,76.92307692,,,,,,,,,,,,,,,,,,,,,575.455,575.653,575.653,576.155,,,,,,,,,,,,,,2.159,0,,,,,,,,,,,,,,m,,,,,,,,,,,,,,,,104,0,576.155,578.321,z,0,2.159,,[],[],[],[],[],[],[],578.321,580.321,580.321,580.322,[],[],[],[],[],[],[],,580.322,580.322,-0.145555556,-0.271111111,0,0,0,,0,103,103,138,1,4,word,REFUSAL,cursive,refusal_c.png,,,,,,
,,,,32373,001,2025-12-04_12h01.06.915,HW_LDT_1,2024.2.4,MacIntel,76.92307692,,,,,,,,,,,,,,,,,,,,,580.323,580.519,580.519,581.021,,,,,,,,,,,,,,0.962,1,,,,,,,,,,,,,,z,,,,,,,,,,,,,,,,105,0,581.021,581.986,z,1,0.962,,[],[],[],[],[],[],[],581.986,583.985,583.986,583.986,[],[],[],[],[],[],[],,583.986,583.986,-0.145555556,-0.271111111,0,0,0,,0,104,104,57,1,4,TL,etidor,print,etidor_p.png,,,,,,
,,,,32373,001,2025-12-04_12h01.06.915,HW_LDT_1,2024.2.4,MacIntel,76.92307692,,,,,,,,,,,,,,,,,,,,,583.986,584.192,584.192,584.678,,,,,,,,,,,,,,3.639,0,,,,,,,,,,,,,,z,,,,,,,,,,,,,,,,106,1,584.678,588.319,m,0,3.639,,[],[],[],[],[],[],[],588.319,590.319,590.319,591.587,[],[],[],[],[],[],[],z,591.588,591.588,-0.145555556,-0.271111111,0,0,0,,0,105,105,6,1,4,RL,caleberia,cursive,caleberia_c.png,1.262,,,,,
,,,,32373,001,2025-12-04_12h01.06.915,HW_LDT_1,2024.2.4,MacIntel,76.92307692,,,,,,,,,,,,,,,,,,,,,591.588,591.787,591.787,592.286,,,,,,,,,,,,,,1.147,1,,,,,,,,,,,,,,z,,,,,,,,,,,,,,,,107,0,592.287,593.438,z,1,1.147,,[],[],[],[],[],[],[],593.438,595.437,595.437,595.437,[],[],[],[],[],[],[],,595.437,595.438,-0.145555556,-0.271111111,0,0,0,,0,106,106,76,1,4,TL,setanor,print,setanor_p.png,,,,,,
,,,,32373,001,2025-12-04_12h01.06.915,HW_LDT_1,2024.2.4,MacIntel,76.92307692,,,,,,,,,,,,,,,,,,,,,595.438,595.623,595.623,596.139,,,,,,,,,,,,,,0.976,1,,,,,,,,,,,,,,m,,,,,,,,,,,,,,,,108,0,596.139,597.12,m,1,0.976,,[],[],[],[],[],[],[],597.12,599.119,599.119,599.12,[],[],[],[],[],[],[],,599.12,599.12,-0.145555556,-0.271111111,0,0,0,,0,107,107,127,1,4,word,ORIGINAL,print,original_p.png,,,,,,
,,,,32373,001,2025-12-04_12h01.06.915,HW_LDT_1,2024.2.4,MacIntel,76.92307692,,,,,,,,,,,,,,,,,,,,,599.12,599.319,599.319,599.821,,,,,,,,,,,,,,0.977,1,,,,,,,,,,,,,,m,,,,,,,,,,,,,,,,109,0,599.821,600.804,m,1,0.977,,[],[],[],[],[],[],[],600.804,602.803,602.803,602.803,[],[],[],[],[],[],[],,602.803,602.803,-0.145555556,-0.271111111,0,0,0,,0,108,108,132,1,4,word,PROPOSAL,print,proposal_p.png,,,,,,
,,,,32373,001,2025-12-04_12h01.06.915,HW_LDT_1,2024.2.4,MacIntel,76.92307692,,,,,,,,,,,,,,,,,,,,,602.803,603.004,603.004,603.504,,,,,,,,,,,,,,0.944,1,,,,,,,,,,,,,,m,,,,,,,,,,,,,,,,110,0,603.504,604.453,m,1,0.944,,[],[],[],[],[],[],[],604.453,606.454,606.454,606.454,[],[],[],[],[],[],[],,606.454,606.454,-0.145555556,-0.271111111,0,0,0,,0,109,109,156,1,4,word,TRIBUTE,print,tribute_p.png,,,,,,
,,,,32373,001,2025-12-04_12h01.06.915,HW_LDT_1,2024.2.4,MacIntel,76.92307692,,,,,,,,,,,,,,,,,,,,,606.455,606.653,606.653,607.156,,,,,,,,,,,,,,3.328,0,,,,,,,,,,,,,,z,,,,,,,,,,,,,,,,111,0,607.156,610.485,m,0,3.328,,[],[],[],[],[],[],[],610.485,612.485,612.486,612.486,[],[],[],[],[],[],[],,612.486,612.486,-0.145555556,-0.271111111,0,0,0,,0,110,110,37,1,4,RL,renutal,cursive,renutal_c.png,,,,,,
,,,,32373,001,2025-12-04_12h01.06.915,HW_LDT_1,2024.2.4,MacIntel,76.92307692,,,,,,,,,,,,,,,,,,,,,612.486,612.687,612.687,613.186,,,,,,,,,,,,,,3.46,0,,,,,,,,,,,,,,z,,,,,,,,,,,,,,,,112,0,613.187,616.653,m,0,3.46,,[],[],[],[],[],[],[],616.653,618.654,618.654,618.654,[],[],[],[],[],[],[],,618.654,618.654,-0.145555556,-0.271111111,0,0,0,,0,111,111,11,1,4,RL,clisimal,print,clisimal_p.png,,,,,,
,,,,32373,001,2025-12-04_12h01.06.915,HW_LDT_1,2024.2.4,MacIntel,76.92307692,,,,,,,,,,,,,,,,,,,,,618.654,618.853,618.853,619.353,,,,,,,,,,,,,,0.694,1,,,,,,,,,,,,,,m,,,,,,,,,,,,,,,,113,0,619.353,620.053,m,1,0.694,,[],[],[],[],[],[],[],620.053,622.053,622.053,622.053,[],[],[],[],[],[],[],,622.053,622.053,-0.145555556,-0.271111111,0,0,0,,0,112,112,154,1,4,word,STORAGE,print,storage_p.png,,,,,,
,,,,32373,001,2025-12-04_12h01.06.915,HW_LDT_1,2024.2.4,MacIntel,76.92307692,,,,,,,,,,,,,,,,,,,,,622.054,622.253,622.253,622.753,,,,,,,,,,,,,,0.68,1,,,,,,,,,,,,,,m,,,,,,,,,,,,,,,,114,1,622.753,623.435,m,1,0.68,,[],[],[],[],[],[],[],623.435,625.437,625.437,626.603,[],[],[],[],[],[],[],m,626.604,626.604,-0.145555556,-0.271111111,0,0,0,,0,113,113,149,1,4,word,SENATOR,print,senator_p.png,1.163,,,,,
,,,,32373,001,2025-12-04_12h01.06.915,HW_LDT_1,2024.2.4,MacIntel,76.92307692,,,,,,,,,,,,,,,,,,,,,626.604,626.803,626.803,627.303,,,,,,,,,,,,,,3.395,1,,,,,,,,,,,,,,m,,,,,,,,,,,,,,,,115,0,627.303,630.703,m,1,3.395,,[],[],[],[],[],[],[],630.703,632.703,632.703,632.703,[],[],[],[],[],[],[],,632.703,632.703,-0.145555556,-0.271111111,0,0,0,,0,114,114,85,1,4,word,BENEFIT,cursive,benefit_c.png,,,,,,
,,,,32373,001,2025-12-04_12h01.06.915,HW_LDT_1,2024.2.4,MacIntel,76.92307692,,,,,,,,,,,,,,,,,,,,,632.704,632.903,632.903,633.403,,,,,,,,,,,,,,1.208,1,,,,,,,,,,,,,,m,,,,,,,,,,,,,,,,116,0,633.403,634.62,m,1,1.208,,[],[],[],[],[],[],[],634.62,636.618,636.618,636.619,[],[],[],[],[],[],[],,636.619,636.619,-0.145555556,-0.271111111,0,0,0,,0,115,115,158,1,4,word,VELOCITY,cursive,velocity_c.png,,,,,,
,,,,32373,001,2025-12-04_12h01.06.915,HW_LDT_1,2024.2.4,MacIntel,76.92307692,,,,,,,,,,,,,,,,,,,,,636.619,636.819,636.819,637.318,,,,,,,,,,,,,,1.344,1,,,,,,,,,,,,,,m,,,,,,,,,,,,,,,,117,0,637.318,638.669,m,1,1.344,,[],[],[],[],[],[],[],638.669,640.669,640.669,640.67,[],[],[],[],[],[],[],,640.67,640.67,-0.145555556,-0.271111111,0,0,0,,0,116,116,116,1,4,word,MARGINAL,cursive,marginal_c.png,,,,,,
,,,,32373,001,2025-12-04_12h01.06.915,HW_LDT_1,2024.2.4,MacIntel,76.92307692,,,,,,,,,,,,,,,,,,,,,640.671,640.869,640.869,641.371,,,,,,,,,,,,,,0.861,1,,,,,,,,,,,,,,m,,,,,,,,,,,,,,,,118,0,641.371,642.236,m,1,0.861,,[],[],[],[],[],[],[],642.236,644.237,644.237,644.237,[],[],[],[],[],[],[],,644.237,644.237,-0.145555556,-0.271111111,0,0,0,,0,117,117,123,1,4,word,MODERATE,print,moderate_p.png,,,,,,
,,,,32373,001,2025-12-04_12h01.06.915,HW_LDT_1,2024.2.4,MacIntel,76.92307692,,,,,,,,,,,,,,,,,,,,,644.237,644.435,644.435,644.935,,,,,,,,,,,,,,0.745,0,,,,,,,,,,,,,,z,,,,,,,,,,,,,,,,119,0,644.936,645.685,m,0,0.745,,[],[],[],[],[],[],[],645.685,647.686,647.686,647.686,[],[],[],[],[],[],[],,647.686,647.686,-0.145555556,-0.271111111,0,0,0,,0,118,118,67,1,4,TL,polupar,print,polupar_p.png,,,,,,
,,,,32373,001,2025-12-04_12h01.06.915,HW_LDT_1,2024.2.4,MacIntel,76.92307692,,,,,,,,,,,,,,,,,,,,,647.687,647.892,647.892,648.385,,,,,,,,,,,,,,1.195,0,,,,,,,,,,,,,,z,,,,,,,,,,,,,,,,120,0,648.386,649.586,m,0,1.195,,[],[],[],[],[],[],[],649.587,651.586,651.586,651.586,[],[],[],[],[],[],[],,651.586,651.587,-0.145555556,-0.271111111,0,0,0,,0,119,119,77,1,4,TL,spemicen,cursive,spemicen_c.png,,,,,,
,,,,32373,001,2025-12-04_12h01.06.915,HW_LDT_1,2024.2.4,MacIntel,76.92307692,,,,,,,,,,,,,,,,,,,,,651.587,651.786,651.786,652.286,,,,,,,,,,,,,,0.813,1,,,,,,,,,,,,,,m,,,,,,,,,,,,,,,,121,0,652.286,653.103,m,1,0.813,,[],[],[],[],[],[],[],653.103,655.103,655.103,655.103,[],[],[],[],[],[],[],,655.103,655.103,-0.145555556,-0.271111111,0,0,0,,0,120,120,105,1,4,word,EDITOR,print,editor_p.png,,,,,,
,,,,32373,001,2025-12-04_12h01.06.915,HW_LDT_1,2024.2.4,MacIntel,76.92307692,,,,,,,,,,,,,,,,,,,,,655.104,655.302,655.302,655.803,,,,,,,,,,,,,,1.245,1,,,,,,,,,,,,,,z,,,,,,,,,,,,,,,,122,0,655.803,657.053,z,1,1.245,,[],[],[],[],[],[],[],657.053,659.052,659.052,659.053,[],[],[],[],[],[],[],,659.053,659.053,-0.145555556,-0.271111111,0,0,0,,0,121,121,75,1,4,TL,sanile,print,sanile_p.png,,,,,,
,,,,32373,001,2025-12-04_12h01.06.915,HW_LDT_1,2024.2.4,MacIntel,76.92307692,,,,,,,,,,,,,,,,,,,,,659.053,659.252,659.252,659.752,,,,,,,,,,,,,,6.075,1,,,,,,,,,,,,,,m,,,,,,,,,,,,,,,,123,0,659.753,665.835,m,1,6.075,,[],[],[],[],[],[],[],665.835,667.835,667.835,667.836,[],[],[],[],[],[],[],,667.836,667.836,-0.145555556,-0.271111111,0,0,0,,0,122,122,106,1,4,word,ELABORATE,cursive,elaborate_c.png,,,,,,
,,,,32373,001,2025-12-04_12h01.06.915,HW_LDT_1,2024.2.4,MacIntel,76.92307692,,,,,,,,,,,,,,,,,,,,,667.836,668.028,668.028,668.537,,,,,,,,,,,,,,1.078,1,,,,,,,,,,,,,,m,,,,,,,,,,,,,,,,124,0,668.538,669.618,m,1,1.078,,[],[],[],[],[],[],[],669.619,671.621,671.621,671.621,[],[],[],[],[],[],[],,671.621,671.621,-0.145555556,-0.271111111,0,0,0,,0,123,123,112,1,4,word,LIBERAL,cursive,liberal_c.png,,,,,,
,,,,32373,001,2025-12-04_12h01.06.915,HW_LDT_1,2024.2.4,MacIntel,76.92307692,,,,,,,,,,,,,,,,,,,,,671.622,671.82,671.82,672.318,,,,,,,,,,,,,,1.515,1,,,,,,,,,,,,,,m,,,,,,,,,,,,,,,,125,0,672.319,673.836,m,1,1.515,,[],[],[],[],[],[],[],673.836,675.835,675.835,675.835,[],[],[],[],[],[],[],,675.835,675.836,-0.145555556,-0.271111111,0,0,0,,0,124,124,130,1,4,word,POLICY,cursive,policy_c.png,,,,,,
,,,,32373,001,2025-12-04_12h01.06.915,HW_LDT_1,2024.2.4,MacIntel,76.92307692,,,,,,,,,,,,,,,,,,,,,675.836,676.034,676.034,676.535,,,,,,,,,,,,,,1.146,1,,,,,,,,,,,,,,z,,,,,,,,,,,,,,,,126,0,676.536,677.685,z,1,1.146,,[],[],[],[],[],[],[],677.685,679.684,679.685,679.685,[],[],[],[],[],[],[],,679.686,679.686,-0.145555556,-0.271111111,0,0,0,,0,125,125,58,1,4,TL,edivent,print,edivent_p.png,,,,,,
,,,,32373,001,2025-12-04_12h01.06.915,HW_LDT_1,2024.2.4,MacIntel,76.92307692,,,,,,,,,,,,,,,,,,,,,679.687,679.885,679.885,680.386,,,,,,,,,,,,,,0.958,1,,,,,,,,,,,,,,m,,,,,,,,,,,,,,,,127,0,680.386,681.352,m,1,0.958,,[],[],[],[],[],[],[],681.352,683.351,683.352,683.352,[],[],[],[],[],[],[],,683.353,683.353,-0.145555556,-0.271111111,0,0,0,,0,126,126,121,1,4,word,MISTAKE,print,mistake_p.png,,,,,,
,,,,32373,001,2025-12-04_12h01.06.915,HW_LDT_1,2024.2.4,MacIntel,76.92307692,,,,,,,,,,,,,,,,,,,,,683.353,683.553,683.553,684.051,,,,,,,,,,,,,,3.458,0,,,,,,,,,,,,,,m,,,,,,,,,,,,,,,,128,0,684.052,687.518,z,0,3.458,,[],[],[],[],[],[],[],687.518,689.518,689.518,689.519,[],[],[],[],[],[],[],,689.519,689.52,-0.145555556,-0.271111111,0,0,0,,0,127,127,113,1,4,word,LITERAL,cursive,literal_c.png,,,,,,
,,,,32373,001,2025-12-04_12h01.06.915,HW_LDT_1,2024.2.4,MacIntel,76.92307692,,,,,,,,,,,,,,,,,,,,,689.52,689.72,689.72,690.218,,,,,,,,,,,,,,2.558,1,,,,,,,,,,,,,,z,,,,,,,,,,,,,,,,129,0,690.219,692.785,z,1,2.558,,[],[],[],[],[],[],[],692.785,694.786,694.786,694.786,[],[],[],[],[],[],[],,694.786,694.786,-0.145555556,-0.271111111,0,0,0,,0,128,128,8,1,4,RL,casagity,cursive,casagity_c.png,,,,,,
,,,,32373,001,2025-12-04_12h01.06.915,HW_LDT_1,2024.2.4,MacIntel,76.92307692,,,,,,,,,,,,,,,,,,,,,694.787,694.986,694.986,695.486,,,,,,,,,,,,,,1.24,1,,,,,,,,,,,,,,m,,,,,,,,,,,,,,,,130,1,695.486,696.736,m,1,1.24,,[],[],[],[],[],[],[],696.736,698.736,698.736,699.901,[],[],[],[],[],[],[],z,699.901,699.901,-0.145555556,-0.271111111,0,0,0,,0,129,129,118,1,4,word,MEDICINE,cursive,medicine_c.png,1.164,,,,,
,,,,32373,001,2025-12-04_12h01.06.915,HW_LDT_1,2024.2.4,MacIntel,76.92307692,,,,,,,,,,,,,,,,,,,,,699.902,700.087,700.087,700.605,,,,,,,,,,,,,,4.061,1,,,,,,,,,,,,,,m,,,,,,,,,,,,,,,,131,1,700.605,704.667,m,1,4.061,,[],[],[],[],[],[],[],704.667,706.668,706.669,707.902,[],[],[],[],[],[],[],z,707.902,707.902,-0.145555556,-0.271111111,0,0,0,,0,130,130,102,1,4,word,DENSITY,cursive,density_c.png,1.229,,,,,
,,,,32373,001,2025-12-04_12h01.06.915,HW_LDT_1,2024.2.4,MacIntel,76.92307692,,,,,,,,,,,,,,,,,,,,,707.903,708.106,708.106,708.602,,,,,,,,,,,,,,0.911,1,,,,,,,,,,,,,,z,,,,,,,,,,,,,,,,132,1,708.602,709.518,z,1,0.911,,[],[],[],[],[],[],[],709.518,711.518,711.518,712.736,[],[],[],[],[],[],[],m,712.736,712.736,-0.145555556,-0.271111111,0,0,0,,0,131,131,3,1,4,RL,bewoted,print,bewoted_p.png,1.21,,,,,
,,,,32373,001,2025-12-04_12h01.06.915,HW_LDT_1,2024.2.4,MacIntel,76.92307692,,,,,,,,,,,,,,,,,,,,,712.736,712.935,712.935,713.434,,,,,,,,,,,,,,8.477,0,,,,,,,,,,,,,,m,,,,,,,,,,,,,,,,133,0,713.435,721.919,z,0,8.477,,[],[],[],[],[],[],[],721.919,723.918,723.918,723.919,[],[],[],[],[],[],[],,723.919,723.919,-0.145555556,-0.271111111,0,0,0,,0,132,132,108,1,4,word,FORTUNE,cursive,fortune_c.png,,,,,,
,,,,32373,001,2025-12-04_12h01.06.915,HW_LDT_1,2024.2.4,MacIntel,76.92307692,,,,,,,,,,,,,,,,,,,,,723.919,724.118,724.118,724.618,,,,,,,,,,,,,,1.312,1,,,,,,,,,,,,,,m,,,,,,,,,,,,,,,,134,0,724.619,725.935,m,1,1.312,,[],[],[],[],[],[],[],725.935,727.935,727.935,727.935,[],[],[],[],[],[],[],,727.935,727.935,-0.145555556,-0.271111111,0,0,0,,0,133,133,83,1,4,word,ANIMAL,cursive,animal_c.png,,,,,,
,,,,32373,001,2025-12-04_12h01.06.915,HW_LDT_1,2024.2.4,MacIntel,76.92307692,,,,,,,,,,,,,,,,,,,,,727.936,728.134,728.134,728.635,,,,,,,,,,,,,,1.495,1,,,,,,,,,,,,,,m,,,,,,,,,,,,,,,,135,0,728.635,730.135,m,1,1.495,,[],[],[],[],[],[],[],730.135,732.135,732.135,732.135,[],[],[],[],[],[],[],,732.135,732.136,-0.145555556,-0.271111111,0,0,0,,0,134,134,157,1,4,word,VALIDITY,print,validity_p.png,,,,,,
,,,,32373,001,2025-12-04_12h01.06.915,HW_LDT_1,2024.2.4,MacIntel,76.92307692,,,,,,,,,,,,,,,,,,,,,732.136,732.334,732.334,732.835,,,,,,,,,,,,,,0.893,1,,,,,,,,,,,,,,z,,,,,,,,,,,,,,,,136,0,732.836,733.737,z,1,0.893,,[],[],[],[],[],[],[],733.737,735.735,735.735,735.735,[],[],[],[],[],[],[],,735.735,735.736,-0.145555556,-0.271111111,0,0,0,,0,135,135,63,1,4,TL,miskate,print,miskate_p.png,,,,,,
,,,,32373,001,2025-12-04_12h01.06.915,HW_LDT_1,2024.2.4,MacIntel,76.92307692,,,,,,,,,,,,,,,,,,,,,735.736,735.934,735.934,736.434,,,,,,,,,,,,,,2.492,1,,,,,,,,,,,,,,z,,,,,,,,,,,,,,,,137,0,736.435,738.935,z,1,2.492,,[],[],[],[],[],[],[],738.935,740.934,740.934,740.934,[],[],[],[],[],[],[],,740.934,740.934,-0.145555556,-0.271111111,0,0,0,,0,136,136,72,1,4,TL,relugar,cursive,relugar_c.png,,,,,,
,,,,32373,001,2025-12-04_12h01.06.915,HW_LDT_1,2024.2.4,MacIntel,76.92307692,,,,,,,,,,,,,,,,,,,,,740.935,741.136,741.136,741.634,,,,,,,,,,,,,,2.13,1,,,,,,,,,,,,,,m,,,,,,,,,,,,,,,,138,0,741.635,743.767,m,1,2.13,,[],[],[],[],[],[],[],743.767,745.768,745.768,745.769,[],[],[],[],[],[],[],,745.769,745.769,-0.145555556,-0.271111111,0,0,0,,0,137,137,96,1,4,word,CONSIDER,cursive,consider_c.png,,,,,,
,,,,32373,001,2025-12-04_12h01.06.915,HW_LDT_1,2024.2.4,MacIntel,76.92307692,,,,,,,,,,,,,,,,,,,,,745.77,745.967,745.967,746.468,,,,,,,,,,,,,,0.929,1,,,,,,,,,,,,,,m,,,,,,,,,,,,,,,,139,0,746.469,747.401,m,1,0.929,,[],[],[],[],[],[],[],747.401,749.401,749.401,749.401,[],[],[],[],[],[],[],,749.401,749.401,-0.145555556,-0.271111111,0,0,0,,0,138,138,117,1,4,word,MARINE,print,marine_p.png,,,,,,
,,,,32373,001,2025-12-04_12h01.06.915,HW_LDT_1,2024.2.4,MacIntel,76.92307692,,,,,,,,,,,,,,,,,,,,,749.402,749.605,749.605,750.1,,,,,,,,,,,,,,2.496,1,,,,,,,,,,,,,,z,,,,,,,,,,,,,,,,140,0,750.1,752.601,z,1,2.496,,[],[],[],[],[],[],[],752.601,754.602,754.602,754.602,[],[],[],[],[],[],[],,754.602,754.602,-0.145555556,-0.271111111,0,0,0,,0,139,139,36,1,4,RL,rabigly,cursive,rabigly_c.png,,,,,,
,,,,32373,001,2025-12-04_12h01.06.915,HW_LDT_1,2024.2.4,MacIntel,76.92307692,,,,,,,,,,,,,,,,,,,,,754.603,754.801,754.801,755.301,,,,,,,,,,,,,,0.894,1,,,,,,,,,,,,,,z,,,,,,,,,,,,,,,,141,0,755.301,756.201,z,1,0.894,,[],[],[],[],[],[],[],756.201,758.201,758.201,758.201,[],[],[],[],[],[],[],,758.201,758.201,-0.145555556,-0.271111111,0,0,0,,0,140,140,42,1,4,RL,revune,print,revune_p.png,,,,,,
,,,,32373,001,2025-12-04_12h01.06.915,HW_LDT_1,2024.2.4,MacIntel,76.92307692,,,,,,,,,,,,,,,,,,,,,758.202,758.4,758.4,758.9,,,,,,,,,,,,,,3.977,1,,,,,,,,,,,,,,z,,,,,,,,,,,,,,,,142,0,758.901,762.885,z,1,3.977,,[],[],[],[],[],[],[],762.885,764.884,764.884,764.885,[],[],[],[],[],[],[],,764.885,764.885,-0.145555556,-0.271111111,0,0,0,,0,141,141,19,1,4,RL,elacodate,cursive,elacodate_c.png,,,,,,
,,,,32373,001,2025-12-04_12h01.06.915,HW_LDT_1,2024.2.4,MacIntel,76.92307692,,,,,,,,,,,,,,,,,,,,,764.886,765.085,765.085,765.583,,,,,,,,,,,,,,1.045,1,,,,,,,,,,,,,,z,,,,,,,,,,,,,,,,143,0,765.583,766.635,z,1,1.045,,[],[],[],[],[],[],[],766.635,768.634,768.634,768.634,[],[],[],[],[],[],[],,768.634,768.634,-0.145555556,-0.271111111,0,0,0,,0,142,142,21,1,4,RL,insibate,print,insibate_p.png,,,,,,
,,,,32373,001,2025-12-04_12h01.06.915,HW_LDT_1,2024.2.4,MacIntel,76.92307692,,,,,,,,,,,,,,,,,,,,,768.635,768.819,768.819,769.334,,,,,,,,,,,,,,1.094,1,,,,,,,,,,,,,,z,,,,,,,,,,,,,,,,144,1,769.334,770.434,z,1,1.094,,[],[],[],[],[],[],[],770.434,772.434,772.434,773.503,[],[],[],[],[],[],[],m,773.504,773.504,-0.145555556,-0.271111111,0,0,0,,0,143,143,73,1,4,TL,regilion,print,regilion_p.png,1.069,,,,,
,,,,32373,001,2025-12-04_12h01.06.915,HW_LDT_1,2024.2.4,MacIntel,76.92307692,,,,,,,,,,,,,,,,,,,,,773.505,773.709,773.709,774.207,,,,,,,,,,,,,,1.073,1,,,,,,,,,,,,,,m,,,,,,,,,,,,,,,,145,1,774.207,775.284,m,1,1.073,,[],[],[],[],[],[],[],775.284,777.284,777.284,778.301,[],[],[],[],[],[],[],m,778.301,778.301,-0.145555556,-0.271111111,0,0,0,,0,144,144,136,1,4,word,RADICAL,print,radical_p.png,1.013,,,,,
,,,,32373,001,2025-12-04_12h01.06.915,HW_LDT_1,2024.2.4,MacIntel,76.92307692,,,,,,,,,,,,,,,,,,,,,778.301,778.501,778.501,779,,,,,,,,,,,,,,0.811,1,,,,,,,,,,,,,,z,,,,,,,,,,,,,,,,146,0,779.001,779.818,z,1,0.811,,[],[],[],[],[],[],[],779.818,781.818,781.818,781.818,[],[],[],[],[],[],[],,781.818,781.818,-0.145555556,-0.271111111,0,0,0,,0,145,145,43,1,4,RL,rovastic,print,rovastic_p.png,,,,,,
,,,,32373,001,2025-12-04_12h01.06.915,HW_LDT_1,2024.2.4,MacIntel,76.92307692,,,,,,,,,,,,,,,,,,,,,781.819,782.018,782.018,782.517,,,,,,,,,,,,,,2.663,1,,,,,,,,,,,,,,m,,,,,,,,,,,,,,,,147,0,782.517,785.184,m,1,2.663,,[],[],[],[],[],[],[],785.184,787.184,787.184,787.184,[],[],[],[],[],[],[],,787.184,787.185,-0.145555556,-0.271111111,0,0,0,,0,146,146,128,1,4,word,PACIFIC,cursive,pacific_c.png,,,,,,
,,,,32373,001,2025-12-04_12h01.06.915,HW_LDT_1,2024.2.4,MacIntel,76.92307692,,,,,,,,,,,,,,,,,,,,,787.185,787.384,787.384,787.884,,,,,,,,,,,,,,1.857,1,,,,,,,,,,,,,,m,,,,,,,,,,,,,,,,148,1,787.885,789.751,m,1,1.857,,[],[],[],[],[],[],[],789.751,791.751,791.751,792.859,[],[],[],[],[],[],[],z,792.859,792.859,-0.145555556,-0.271111111,0,0,0,,0,147,147,89,1,4,word,CAPACITY,cursive,capacity_c.png,1.107,,,,,
,,,,32373,001,2025-12-04_12h01.06.915,HW_LDT_1,2024.2.4,MacIntel,76.92307692,,,,,,,,,,,,,,,,,,,,,792.86,793.05,793.05,793.551,,,,,,,,,,,,,,1.808,1,,,,,,,,,,,,,,m,,,,,,,,,,,,,,,,149,0,793.551,795.367,m,1,1.808,,[],[],[],[],[],[],[],795.367,797.368,797.368,797.368,[],[],[],[],[],[],[],,797.368,797.368,-0.145555556,-0.271111111,0,0,0,,0,148,148,91,1,4,word,CARDINAL,cursive,cardinal_c.png,,,,,,
,,,,32373,001,2025-12-04_12h01.06.915,HW_LDT_1,2024.2.4,MacIntel,76.92307692,,,,,,,,,,,,,,,,,,,,,797.369,797.567,797.567,798.067,,,,,,,,,,,,,,7.212,1,,,,,,,,,,,,,,z,,,,,,,,,,,,,,,,150,1,798.068,805.285,z,1,7.212,,[],[],[],[],[],[],[],805.285,807.285,807.285,808.201,[],[],[],[],[],[],[],z,808.201,808.201,-0.145555556,-0.271111111,0,0,0,,0,149,149,52,1,4,TL,cagetory,cursive,cagetory_c.png,0.91,,,,,
,,,,32373,001,2025-12-04_12h01.06.915,HW_LDT_1,2024.2.4,MacIntel,76.92307692,,,,,,,,,,,,,,,,,,,,,808.201,808.399,808.399,808.901,,,,,,,,,,,,,,0.994,1,,,,,,,,,,,,,,z,,,,,,,,,,,,,,,,151,0,808.901,809.901,z,1,0.994,,[],[],[],[],[],[],[],809.901,811.901,811.901,811.901,[],[],[],[],[],[],[],,811.901,811.902,-0.145555556,-0.271111111,0,0,0,,0,150,150,62,1,4,TL,locigal,print,locigal_p.png,,,,,,
,,,,32373,001,2025-12-04_12h01.06.915,HW_LDT_1,2024.2.4,MacIntel,76.92307692,,,,,,,,,,,,,,,,,,,,,811.902,812.1,812.1,812.602,,,,,,,,,,,,,,1.311,1,,,,,,,,,,,,,,m,,,,,,,,,,,,,,,,152,0,812.603,813.916,m,1,1.311,,[],[],[],[],[],[],[],813.916,815.917,815.917,815.917,[],[],[],[],[],[],[],,815.917,815.917,-0.145555556,-0.271111111,0,0,0,,0,151,151,129,1,4,word,PARENT,cursive,parent_c.png,,,,,,
,,,,32373,001,2025-12-04_12h01.06.915,HW_LDT_1,2024.2.4,MacIntel,76.92307692,,,,,,,,,,,,,,,,,,,,,815.918,816.118,816.118,816.617,,,,,,,,,,,,,,1.479,0,,,,,,,,,,,,,,z,,,,,,,,,,,,,,,,153,0,816.617,818.1,m,0,1.479,,[],[],[],[],[],[],[],818.1,820.099,820.1,820.101,[],[],[],[],[],[],[],,820.101,820.101,-0.145555556,-0.271111111,0,0,0,,0,152,152,30,1,4,RL,nunewical,cursive,nunewical_c.png,,,,,,
,,,,32373,001,2025-12-04_12h01.06.915,HW_LDT_1,2024.2.4,MacIntel,76.92307692,,,,,,,,,,,,,,,,,,,,,820.103,820.301,820.301,820.799,,,,,,,,,,,,,,1.211,1,,,,,,,,,,,,,,m,,,,,,,,,,,,,,,,154,0,820.801,822.016,m,1,1.211,,[],[],[],[],[],[],[],822.017,824.016,824.016,824.017,[],[],[],[],[],[],[],,824.017,824.017,-0.145555556,-0.271111111,0,0,0,,0,153,153,103,1,4,word,DISPUTE,print,dispute_p.png,,,,,,
,,,,32373,001,2025-12-04_12h01.06.915,HW_LDT_1,2024.2.4,MacIntel,76.92307692,,,,,,,,,,,,,,,,,,,,,824.018,824.217,824.218,824.722,,,,,,,,,,,,,,1.173,0,,,,,,,,,,,,,,z,,,,,,,,,,,,,,,,155,0,824.723,825.9,m,0,1.173,,[],[],[],[],[],[],[],825.9,827.9,827.9,827.9,[],[],[],[],[],[],[],,827.9,827.9,-0.145555556,-0.271111111,0,0,0,,0,154,154,24,1,4,RL,marmipal,cursive,marmipal_c.png,,,,,,
,,,,32373,001,2025-12-04_12h01.06.915,HW_LDT_1,2024.2.4,MacIntel,76.92307692,,,,,,,,,,,,,,,,,,,,,827.901,828.1,828.1,828.599,,,,,,,,,,,,,,0.905,1,,,,,,,,,,,,,,z,,,,,,,,,,,,,,,,156,0,828.599,829.505,z,1,0.905,,[],[],[],[],[],[],[],829.505,831.5,831.5,831.501,[],[],[],[],[],[],[],,831.501,831.501,-0.145555556,-0.271111111,0,0,0,,0,155,155,38,1,4,RL,refakive,print,refakive_p.png,,,,,,
,,,,32373,001,2025-12-04_12h01.06.915,HW_LDT_1,2024.2.4,MacIntel,76.92307692,,,,,,,,,,,,,,,,,,,,,831.501,831.701,831.701,832.2,,,,,,,,,,,,,,4.661,1,,,,,,,,,,,,,,z,,,,,,,,,,,,,,,,157,0,832.2,836.868,z,1,4.661,,[],[],[],[],[],[],[],836.868,838.866,838.866,838.867,[],[],[],[],[],[],[],,838.867,838.867,-0.145555556,-0.271111111,0,0,0,,0,156,156,17,1,4,RL,denficy,cursive,denficy_c.png,,,,,,
,,,,32373,001,2025-12-04_12h01.06.915,HW_LDT_1,2024.2.4,MacIntel,76.92307692,,,,,,,,,,,,,,,,,,,,,838.868,839.066,839.066,839.568,,,,,,,,,,,,,,1.64,1,,,,,,,,,,,,,,m,,,,,,,,,,,,,,,,158,0,839.568,841.218,m,1,1.64,,[],[],[],[],[],[],[],841.218,843.216,843.216,843.216,[],[],[],[],[],[],[],,843.216,843.217,-0.145555556,-0.271111111,0,0,0,,0,157,157,80,1,4,word,ACADEMY,print,academy_p.png,,,,,,
,,,,32373,001,2025-12-04_12h01.06.915,HW_LDT_1,2024.2.4,MacIntel,76.92307692,,,,,,,,,,,,,,,,,,,,,843.217,843.416,843.416,843.916,,,,,,,,,,,,,,0.779,1,,,,,,,,,,,,,,z,,,,,,,,,,,,,,,,159,1,843.916,844.7,z,1,0.779,,[],[],[],[],[],[],[],844.7,846.7,846.7,848.55,[],[],[],[],[],[],[],m,848.55,848.55,-0.145555556,-0.271111111,0,0,0,,0,158,158,48,1,4,RL,vabifity,print,vabifity_p.png,1.847,,,,,
,,,,32373,001,2025-12-04_12h01.06.915,HW_LDT_1,2024.2.4,MacIntel,76.92307692,,,,,,,,,,,,,,,,,,,,,848.55,848.751,848.751,849.25,,,,,,,,,,,,,,1.696,1,,,,,,,,,,,,,,z,,,,,,,,,,,,,,,,160,0,849.25,850.949,z,1,1.696,,[],[],[],[],[],[],[],850.949,852.949,852.949,852.95,[],[],[],[],[],[],[],,852.95,852.95,-0.145555556,-0.271111111,0,0,0,,0,159,159,44,1,4,RL,senvilent,print,senvilent_p.png,,,,,,
,,,,32373,001,2025-12-04_12h01.06.915,HW_LDT_1,2024.2.4,MacIntel,76.92307692,,,,,,,,,,,,,,,,,,,,,,,,,,,,,,,,,,,,,,,,,,,,,,,,,,,,,,,,,,,,,,,,,,,,,,,,,,,,,,,,,,,,,,,,,,,,,,,,,,,,,,,,,,,,,,,,,,,,,,852.952,857.95
