counterbalance_lists.group,counterbalance_lists.remaining,get_list.started,get_list.stopped,participant,session,date,expName,psychopyVersion,OS,frameRate,Instructions.started,Instructions.stopped,key_resp.keys,instr_done_touch.x,instr_done_touch.y,instr_done_touch.leftButton,instr_done_touch.midButton,instr_done_touch.rightButton,instr_done_touch.clicked_name,start_instr.thisRepN,start_instr.thisTrialN,start_instr.thisN,start_instr.thisIndex,start_instr.ran,pageN,phase,instruct_text,has_image,instruct_image,showProgress.started,showProgress.stopped,fix.started,fix.stopped,prac.started,prac.stopped,response.keys,response.corr,response.rt,response.duration,touch_resp.x,touch_resp.y,touch_resp.leftButton,touch_resp.midButton,touch_resp.rightButton,touch_resp.time,touch_resp.clicked_name,rt,corr,feedback.started,feedback.stopped,trials.thisRepN,trials.thisTrialN,trials.thisN,trials.thisIndex,trials.ran,TrialID,StimulusType,Condition,PrimeDuration,Prime,Target,corrAns,Instructions_expt.started,Instructions_expt.stopped,key_resp_3.keys,instr_done_touch_3.x,instr_done_touch_3.y,instr_done_touch_3.leftButton,instr_done_touch_3.midButton,instr_done_touch_3.rightButton,instr_done_touch_3.clicked_name,instr_experiment.thisRepN,instr_experiment.thisTrialN,instr_experiment.thisN,instr_experiment.thisIndex,instr_experiment.ran,trialID,flag,maintask.started,maintask.stopped,key_resp_2.keys,key_resp_2.corr,key_resp_2.rt,key_resp_2.duration,targ_click.x,targ_click.y,targ_click.leftButton,targ_click.midButton,targ_click.rightButton,targ_click.time,targ_click.clicked_name,ITI.started,ITI.stopped,probe.started,probe.stopped,click_probe.x,click_probe.y,click_probe.leftButton,click_probe.midButton,click_probe.rightButton,click_probe.time,click_probe.clicked_name,key_resp_probe.keys,Break.started,Break.stopped,break_done_touch.x,break_done_touch.y,break_done_touch.leftButton,break_done_touch.midButton,break_done_touch.rightButton,break_done_keyboard.keys,list1_trials.thisRepN,list1_trials.thisTrialN,list1_trials.thisN,list1_trials.thisIndex,list1_trials.ran,list_id,item_type,string,font,stim_file,key_resp_probe.rt,key_resp_probe.duration,break_done_keyboard.rt,break_done_keyboard.duration,End.started,End.stopped
list1,,0.4109,0.411,32387,001,2025-12-04_01h34.18.110,HW_LDT_1,2024.2.4,Win32,60.97560976,,,,,,,,,,,,,,,,,,,,,,,,,,,,,,,,,,,,,,,,,,,,,,,,,,,,,,,,,,,,,,,,,,,,,,,,,,,,,,,,,,,,,,,,,,,,,,,,,,,,,,,,,,,,,,,,,,,,,
,,,,32387,001,2025-12-04_01h34.18.110,HW_LDT_1,2024.2.4,Win32,60.97560976,0.4282,3.185,,-0.072633552,-0.400968485,1,0,0,instr_done_button,0,0,0,0,1,1,instructions,"INSTRUCTIONS
At the start of each trial, look at the plus sign  (+) in the center of the screen.  This tells you that a trial is about to begin and where to look. Second, the plus sign will disappear and a string of letters will appear. Your task is to determine if the string of letters is a word or not. If the item is a word press the M key (on keyboard)  or touch the word button (phone/tablet).  If the item is not a word,  press the  Z key (on keyboard)  or touch the nonword button (on phone/tablet). The items will be presented for a short time. 
Press the space bar or touch  continue.",0,,,,,,,,,,,,,,,,,,,,,,,,,,,,,,,,,,,,,,,,,,,,,,,,,,,,,,,,,,,,,,,,,,,,,,,,,,,,,,,,,,,,,,,,,,,,,,,,,,,
,,,,32387,001,2025-12-04_01h34.18.110,HW_LDT_1,2024.2.4,Win32,60.97560976,3.1873,6.7222,,-0.072633552,-0.400968485,1,0,0,instr_done_button,0,1,1,1,1,2,instructions,"If your device has a keyboard, press the 'Z' key for nonwords and the 'M' key for words.





Press the space bar or touch the button below to continue.",0,keyboard-example.gif,,,,,,,,,,,,,,,,,,,,,,,,,,,,,,,,,,,,,,,,,,,,,,,,,,,,,,,,,,,,,,,,,,,,,,,,,,,,,,,,,,,,,,,,,,,,,,,,,,
,,,,32387,001,2025-12-04_01h34.18.110,HW_LDT_1,2024.2.4,Win32,60.97560976,6.724,7.3844,,-0.072633552,-0.400968485,1,0,0,instr_done_button,0,2,2,2,1,3,instructions,"If you are using a touchscreen only device, use the buttons on the screen. Do not use the mouse.





Press the space bar or touch the button below to continue.",0,touchscreen-example.gif,,,,,,,,,,,,,,,,,,,,,,,,,,,,,,,,,,,,,,,,,,,,,,,,,,,,,,,,,,,,,,,,,,,,,,,,,,,,,,,,,,,,,,,,,,,,,,,,,,
,,,,32387,001,2025-12-04_01h34.18.110,HW_LDT_1,2024.2.4,Win32,60.97560976,7.3866,7.6512,,-0.072633552,-0.400968485,1,0,0,instr_done_button,0,3,3,3,1,4,instructions,"It is very important that you respond as quickly and accurately as possible, as each letter string will only be on the screen for two seconds. If you do not respond within this time, the message 'Too slow!' will be displayed and the experiment will progress to the next letter string. The first 20 trials will be practice trials and you will receive feedback on your answers. 

Press the space bar or touch the button below to start the practice trials.",0,,,,,,,,,,,,,,,,,,,,,,,,,,,,,,,,,,,,,,,,,,,,,,,,,,,,,,,,,,,,,,,,,,,,,,,,,,,,,,,,,,,,,,,,,,,,,,,,,,,
,,,,32387,001,2025-12-04_01h34.18.110,HW_LDT_1,2024.2.4,Win32,60.97560976,,,,,,,,,,,,,,,,,,,,7.677,7.8513,7.8515,8.3515,8.3519,16.3017,m,1,7.9316,,[],[],[],[],[],[],[],7.9316,1,16.302,16.8013,0,0,0,0,1,1001,WORD,"ID",33,utopia,UTOPIA,m,,,,,,,,,,,,,,,,,,,,,,,,,,,,,,,,,,,,,,,,,,,,,,,,,,,,,,,,,,,,,,,,,
,,,,32387,001,2025-12-04_01h34.18.110,HW_LDT_1,2024.2.4,Win32,60.97560976,,,,,,,,,,,,,,,,,,,,16.8037,17.0012,17.0014,17.501,17.5029,18.3715,m,1,0.8555,,[],[],[],[],[],[],[],0.8555,1,18.3717,18.8702,0,1,1,7,1,1008,WORD,UN,16,hurdle,VOLUME,m,,,,,,,,,,,,,,,,,,,,,,,,,,,,,,,,,,,,,,,,,,,,,,,,,,,,,,,,,,,,,,,,,
,,,,32387,001,2025-12-04_01h34.18.110,HW_LDT_1,2024.2.4,Win32,60.97560976,,,,,,,,,,,,,,,,,,,,18.872,19.0694,19.0695,19.5687,19.5702,20.6585,m,1,1.0748,,[],[],[],[],[],[],[],1.0748,1,20.6589,21.1545,0,2,2,1,1,1002,WORD,"ID",33,adjust,ADJUST,m,,,,,,,,,,,,,,,,,,,,,,,,,,,,,,,,,,,,,,,,,,,,,,,,,,,,,,,,,,,,,,,,,
,,,,32387,001,2025-12-04_01h34.18.110,HW_LDT_1,2024.2.4,Win32,60.97560976,,,,,,,,,,,,,,,,,,,,21.1562,21.3564,21.3564,21.852,21.8536,22.9182,z,1,1.0471,,[],[],[],[],[],[],[],1.0471,1,22.9183,23.4178,0,3,3,13,1,1014,NW,UN,33,winfer,ROUPET,z,,,,,,,,,,,,,,,,,,,,,,,,,,,,,,,,,,,,,,,,,,,,,,,,,,,,,,,,,,,,,,,,,
,,,,32387,001,2025-12-04_01h34.18.110,HW_LDT_1,2024.2.4,Win32,60.97560976,,,,,,,,,,,,,,,,,,,,23.4203,23.6239,23.6242,24.119,24.1213,25.1691,m,1,1.0316,,[],[],[],[],[],[],[],1.0316,1,25.1694,25.6685,0,4,4,4,1,1005,WORD,UN,33,abound,SQUEAK,m,,,,,,,,,,,,,,,,,,,,,,,,,,,,,,,,,,,,,,,,,,,,,,,,,,,,,,,,,,,,,,,,,
,,,,32387,001,2025-12-04_01h34.18.110,HW_LDT_1,2024.2.4,Win32,60.97560976,,,,,,,,,,,,,,,,,,,,25.6704,25.8684,25.8685,26.3681,26.3698,32.2093,m,0,5.8233,,[],[],[],[],[],[],[],5.8233,0,32.2104,32.7093,0,5,5,10,1,1011,NW,"ID",16,inlade,INLADE,z,,,,,,,,,,,,,,,,,,,,,,,,,,,,,,,,,,,,,,,,,,,,,,,,,,,,,,,,,,,,,,,,,
,,,,32387,001,2025-12-04_01h34.18.110,HW_LDT_1,2024.2.4,Win32,60.97560976,,,,,,,,,,,,,,,,,,,,32.7107,32.9106,32.9107,33.4096,33.4114,35.9186,m,1,2.4909,,[],[],[],[],[],[],[],2.4909,1,35.9204,36.4175,0,6,6,5,1,1006,WORD,UN,33,frenzy,OBTAIN,m,,,,,,,,,,,,,,,,,,,,,,,,,,,,,,,,,,,,,,,,,,,,,,,,,,,,,,,,,,,,,,,,,
,,,,32387,001,2025-12-04_01h34.18.110,HW_LDT_1,2024.2.4,Win32,60.97560976,,,,,,,,,,,,,,,,,,,,36.4195,36.6175,36.6176,37.1234,37.1244,38.7589,z,1,1.6241,,[],[],[],[],[],[],[],1.6241,1,38.7592,39.259,0,7,7,8,1,1009,NW,"ID",33,aslert,ASLERT,z,,,,,,,,,,,,,,,,,,,,,,,,,,,,,,,,,,,,,,,,,,,,,,,,,,,,,,,,,,,,,,,,,
,,,,32387,001,2025-12-04_01h34.18.110,HW_LDT_1,2024.2.4,Win32,60.97560976,,,,,,,,,,,,,,,,,,,,39.2609,39.4594,39.4594,39.9599,39.9616,41.1566,z,1,1.182,,[],[],[],[],[],[],[],1.182,1,41.1568,41.6569,0,8,8,11,1,1012,NW,"ID",16,rashet,RASHET,z,,,,,,,,,,,,,,,,,,,,,,,,,,,,,,,,,,,,,,,,,,,,,,,,,,,,,,,,,,,,,,,,,
,,,,32387,001,2025-12-04_01h34.18.110,HW_LDT_1,2024.2.4,Win32,60.97560976,,,,,,,,,,,,,,,,,,,,41.658,41.8557,41.8557,42.359,42.3605,43.4096,z,1,1.0336,,[],[],[],[],[],[],[],1.0336,1,43.4098,43.9091,0,9,9,12,1,1013,NW,UN,33,adveil,SPRINY,z,,,,,,,,,,,,,,,,,,,,,,,,,,,,,,,,,,,,,,,,,,,,,,,,,,,,,,,,,,,,,,,,,
,,,,32387,001,2025-12-04_01h34.18.110,HW_LDT_1,2024.2.4,Win32,60.97560976,,,,,,,,,,,,,,,,,,,,43.9109,44.109,44.109,44.6094,44.6109,45.664,z,1,1.0399,,[],[],[],[],[],[],[],1.0399,1,45.6641,46.1637,0,10,10,14,1,1015,NW,UN,16,miaber,THRALE,z,,,,,,,,,,,,,,,,,,,,,,,,,,,,,,,,,,,,,,,,,,,,,,,,,,,,,,,,,,,,,,,,,
,,,,32387,001,2025-12-04_01h34.18.110,HW_LDT_1,2024.2.4,Win32,60.97560976,,,,,,,,,,,,,,,,,,,,46.1647,46.3639,46.364,46.8636,46.8645,47.6226,m,1,0.7491,,[],[],[],[],[],[],[],0.7491,1,47.6228,48.1177,0,11,11,3,1,1004,WORD,"ID",16,matrix,MATRIX,m,,,,,,,,,,,,,,,,,,,,,,,,,,,,,,,,,,,,,,,,,,,,,,,,,,,,,,,,,,,,,,,,,
,,,,32387,001,2025-12-04_01h34.18.110,HW_LDT_1,2024.2.4,Win32,60.97560976,,,,,,,,,,,,,,,,,,,,48.1186,48.3174,48.3174,48.8178,48.8187,49.8728,m,1,1.0396,,[],[],[],[],[],[],[],1.0396,1,49.8729,50.3722,0,12,12,6,1,1007,WORD,UN,16,tropic,ZOMBIE,m,,,,,,,,,,,,,,,,,,,,,,,,,,,,,,,,,,,,,,,,,,,,,,,,,,,,,,,,,,,,,,,,,
,,,,32387,001,2025-12-04_01h34.18.110,HW_LDT_1,2024.2.4,Win32,60.97560976,,,,,,,,,,,,,,,,,,,,50.3734,50.5718,50.5719,51.0721,51.0728,51.8719,m,1,0.7906,,[],[],[],[],[],[],[],0.7906,1,51.872,52.3727,0,13,13,2,1,1003,WORD,"ID",16,almond,ALMOND,m,,,,,,,,,,,,,,,,,,,,,,,,,,,,,,,,,,,,,,,,,,,,,,,,,,,,,,,,,,,,,,,,,
,,,,32387,001,2025-12-04_01h34.18.110,HW_LDT_1,2024.2.4,Win32,60.97560976,,,,,,,,,,,,,,,,,,,,52.3738,52.5727,52.5727,53.073,53.0736,53.9473,z,1,0.8661,,[],[],[],[],[],[],[],0.8661,1,53.9474,54.4483,0,14,14,15,1,1016,NW,UN,16,mushed,WHAISE,z,,,,,,,,,,,,,,,,,,,,,,,,,,,,,,,,,,,,,,,,,,,,,,,,,,,,,,,,,,,,,,,,,
,,,,32387,001,2025-12-04_01h34.18.110,HW_LDT_1,2024.2.4,Win32,60.97560976,,,,,,,,,,,,,,,,,,,,54.4498,54.6431,54.6431,55.1461,55.1471,56.5259,z,1,1.3687,,[],[],[],[],[],[],[],1.3687,1,56.5261,57.0264,0,15,15,9,1,1010,NW,"ID",33,fariny,FARINY,z,,,,,,,,,,,,,,,,,,,,,,,,,,,,,,,,,,,,,,,,,,,,,,,,,,,,,,,,,,,,,,,,,
,,,,32387,001,2025-12-04_01h34.18.110,HW_LDT_1,2024.2.4,Win32,60.97560976,,,,,,,,,,,,,,,1,end_of_practice,"You have completed the practice trials. During the experimental trials, you will not receive feedback. On some trials you will be asked to report whether the item you just saw was in cursive or print. 
Before you begin, please ensure that you are in a comfortable and quiet location and will not be disturbed for about 15 minutes, as we cannot use your data if you do not complete all the trials. 
 When you are ready to start the experimental trials, please press space or touch the button below.",,,,,,,,,,,,,,,,,,,,,,,,,,,,,,,,,,,,57.0327,59.1298,,0.126679182,-0.411590147,1,0,0,instr_done_button_3,0,0,0,0,1,,,,,,,,,,,,,,,,,,,,,,,,,,,,,,,,,,,,,,,,,,,,,,,,,,,
,,,,32387,001,2025-12-04_01h34.18.110,HW_LDT_1,2024.2.4,Win32,60.97560976,,,,,,,,,,,,,,,,,,,,59.1399,59.3256,59.3256,59.8254,,,,,,,,,,,,,,1.0941,1,,,,,,,,,,,,,,z,,,,,,,,,,,,,,,1,0,59.8263,60.9282,z,1,1.0941,,[],[],[],[],[],[],[],60.9288,62.9267,62.9269,62.9298,[],[],[],[],[],[],[],,62.9299,62.9326,0.176663543,-0.324742268,0,0,0,,0,0,0,14,1,1,RL,lofase,print,lofase_p.png,,,,,,
,,,,32387,001,2025-12-04_01h34.18.110,HW_LDT_1,2024.2.4,Win32,60.97560976,,,,,,,,,,,,,,,,,,,,62.9337,63.1286,63.1287,63.6345,,,,,,,,,,,,,,3.9849,1,,,,,,,,,,,,,,z,,,,,,,,,,,,,,,2,0,63.6353,67.627,z,1,3.9849,,[],[],[],[],[],[],[],67.6272,69.6263,69.6264,69.6266,[],[],[],[],[],[],[],,69.6267,69.6269,0.176663543,-0.324742268,0,0,0,,0,1,1,67,1,1,TL,pocily,cursive,pocily_c.png,,,,,,
,,,,32387,001,2025-12-04_01h34.18.110,HW_LDT_1,2024.2.4,Win32,60.97560976,,,,,,,,,,,,,,,,,,,,69.6284,69.8264,69.8265,70.3255,,,,,,,,,,,,,,0.8887,1,,,,,,,,,,,,,,z,,,,,,,,,,,,,,,3,0,70.3262,71.2181,z,1,0.8887,,[],[],[],[],[],[],[],71.2186,73.2154,73.2155,73.2156,[],[],[],[],[],[],[],,73.2157,73.2157,0.176663543,-0.324742268,0,0,0,,0,2,2,20,1,1,RL,nunewical,print,nunewical_p.png,,,,,,
,,,,32387,001,2025-12-04_01h34.18.110,HW_LDT_1,2024.2.4,Win32,60.97560976,,,,,,,,,,,,,,,,,,,,73.2175,73.4172,73.4173,73.9175,,,,,,,,,,,,,,0.7957,1,,,,,,,,,,,,,,m,,,,,,,,,,,,,,,4,0,73.9181,74.7147,m,1,0.7957,,[],[],[],[],[],[],[],74.7148,76.7134,76.7134,76.7137,[],[],[],[],[],[],[],,76.7137,76.7138,0.176663543,-0.324742268,0,0,0,,0,3,3,91,1,1,word,CARDINAL,print,cardinal_p.png,,,,,,
,,,,32387,001,2025-12-04_01h34.18.110,HW_LDT_1,2024.2.4,Win32,60.97560976,,,,,,,,,,,,,,,,,,,,76.7148,76.9112,76.9112,77.4097,,,,,,,,,,,,,,0.6938,0,,,,,,,,,,,,,,m,,,,,,,,,,,,,,,5,1,77.4106,78.1056,z,0,0.6938,,[],[],[],[],[],[],[],78.1057,80.1061,80.1062,84.8904,[],[],[],[],[],[],[],m,84.8904,84.8905,0.176663543,-0.324742268,0,0,0,,0,4,4,87,1,1,word,CAFETERIA,cursive,cafeteria_c.png,4.7833,,,,,
,,,,32387,001,2025-12-04_01h34.18.110,HW_LDT_1,2024.2.4,Win32,60.97560976,,,,,,,,,,,,,,,,,,,,84.8912,85.0894,85.0894,85.5887,,,,,,,,,,,,,,4.2582,1,,,,,,,,,,,,,,m,,,,,,,,,,,,,,,6,0,85.5893,89.8489,m,1,4.2582,,[],[],[],[],[],[],[],89.849,91.8502,91.8503,91.8505,[],[],[],[],[],[],[],,91.8506,91.8507,0.176663543,-0.324742268,0,0,0,,0,5,5,88,1,1,word,CAMERA,cursive,camera_c.png,,,,,,
,,,,32387,001,2025-12-04_01h34.18.110,HW_LDT_1,2024.2.4,Win32,60.97560976,,,,,,,,,,,,,,,,,,,,91.8519,92.056,92.056,92.5507,,,,,,,,,,,,,,3.2195,1,,,,,,,,,,,,,,z,,,,,,,,,,,,,,,7,0,92.5515,95.7718,z,1,3.2195,,[],[],[],[],[],[],[],95.7718,97.7716,97.7717,97.772,[],[],[],[],[],[],[],,97.772,97.7721,0.176663543,-0.324742268,0,0,0,,0,6,6,59,1,1,TL,lirebal,cursive,lirebal_c.png,,,,,,
,,,,32387,001,2025-12-04_01h34.18.110,HW_LDT_1,2024.2.4,Win32,60.97560976,,,,,,,,,,,,,,,,,,,,97.7729,97.9677,97.9677,98.4732,,,,,,,,,,,,,,1.989,0,,,,,,,,,,,,,,m,,,,,,,,,,,,,,,8,0,98.4737,100.4677,z,0,1.989,,[],[],[],[],[],[],[],100.4678,102.4637,102.4638,102.4639,[],[],[],[],[],[],[],,102.464,102.4641,0.176663543,-0.324742268,0,0,0,,0,7,7,146,1,1,word,RETIRE,cursive,retire_c.png,,,,,,
,,,,32387,001,2025-12-04_01h34.18.110,HW_LDT_1,2024.2.4,Win32,60.97560976,,,,,,,,,,,,,,,,,,,,102.4652,102.6587,102.6588,103.1636,,,,,,,,,,,,,,2.6731,1,,,,,,,,,,,,,,z,,,,,,,,,,,,,,,9,0,103.1639,105.8379,z,1,2.6731,,[],[],[],[],[],[],[],105.838,107.8381,107.8381,107.8386,[],[],[],[],[],[],[],,107.8386,107.8386,0.176663543,-0.324742268,0,0,0,,0,8,8,74,1,1,TL,setanor,cursive,setanor_c.png,,,,,,
,,,,32387,001,2025-12-04_01h34.18.110,HW_LDT_1,2024.2.4,Win32,60.97560976,,,,,,,,,,,,,,,,,,,,107.8395,108.0383,108.0383,108.5374,,,,,,,,,,,,,,3.3837,1,,,,,,,,,,,,,,m,,,,,,,,,,,,,,,10,0,108.538,111.9226,m,1,3.3837,,[],[],[],[],[],[],[],111.9226,113.9221,113.9222,113.9225,[],[],[],[],[],[],[],,113.9225,113.9228,0.176663543,-0.324742268,0,0,0,,0,9,9,140,1,1,word,RELATIVE,cursive,relative_c.png,,,,,,
,,,,32387,001,2025-12-04_01h34.18.110,HW_LDT_1,2024.2.4,Win32,60.97560976,,,,,,,,,,,,,,,,,,,,113.9238,114.1222,114.1223,114.623,,,,,,,,,,,,,,2.0995,1,,,,,,,,,,,,,,z,,,,,,,,,,,,,,,11,1,114.6234,116.7236,z,1,2.0995,,[],[],[],[],[],[],[],116.7237,118.7223,118.7224,120.9137,[],[],[],[],[],[],[],z,120.9138,120.9139,0.176663543,-0.324742268,0,0,0,,0,10,10,69,1,1,TL,radiply,cursive,radiply_c.png,2.1906,,,,,
,,,,32387,001,2025-12-04_01h34.18.110,HW_LDT_1,2024.2.4,Win32,60.97560976,,,,,,,,,,,,,,,,,,,,120.9147,121.114,121.1141,121.6137,,,,,,,,,,,,,,1.0405,1,,,,,,,,,,,,,,z,,,,,,,,,,,,,,,12,0,121.6141,122.6549,z,1,1.0405,,[],[],[],[],[],[],[],122.655,124.6549,124.655,124.6551,[],[],[],[],[],[],[],,124.6552,124.6552,0.176663543,-0.324742268,0,0,0,,0,11,11,34,1,1,RL,samite,print,samite_p.png,,,,,,
,,,,32387,001,2025-12-04_01h34.18.110,HW_LDT_1,2024.2.4,Win32,60.97560976,,,,,,,,,,,,,,,,,,,,124.6565,124.8536,124.8536,125.3511,,,,,,,,,,,,,,1.488,1,,,,,,,,,,,,,,m,,,,,,,,,,,,,,,13,0,125.3514,126.8422,m,1,1.488,,[],[],[],[],[],[],[],126.8426,128.8386,128.8386,128.8388,[],[],[],[],[],[],[],,128.8388,128.8389,0.176663543,-0.324742268,0,0,0,,0,12,12,80,1,1,word,ACADEMY,cursive,academy_c.png,,,,,,
,,,,32387,001,2025-12-04_01h34.18.110,HW_LDT_1,2024.2.4,Win32,60.97560976,,,,,,,,,,,,,,,,,,,,128.8408,129.0384,129.0385,129.539,,,,,,,,,,,,,,1.2242,1,,,,,,,,,,,,,,m,,,,,,,,,,,,,,,14,0,129.5394,130.7665,m,1,1.2242,,[],[],[],[],[],[],[],130.7666,132.7674,132.7674,132.7677,[],[],[],[],[],[],[],,132.7677,132.768,0.176663543,-0.324742268,0,0,0,,0,13,13,107,1,1,word,EVIDENT,print,evident_p.png,,,,,,
,,,,32387,001,2025-12-04_01h34.18.110,HW_LDT_1,2024.2.4,Win32,60.97560976,,,,,,,,,,,,,,,,,,,,132.7695,132.9664,132.9665,133.4641,,,,,,,,,,,,,,1.1773,1,,,,,,,,,,,,,,m,,,,,,,,,,,,,,,15,0,133.4647,134.6431,m,1,1.1773,,[],[],[],[],[],[],[],134.6432,136.6423,136.6423,136.6424,[],[],[],[],[],[],[],,136.6424,136.6425,0.176663543,-0.324742268,0,0,0,,0,14,14,128,1,1,word,PACIFIC,print,pacific_p.png,,,,,,
,,,,32387,001,2025-12-04_01h34.18.110,HW_LDT_1,2024.2.4,Win32,60.97560976,,,,,,,,,,,,,,,,,,,,136.6438,136.8418,136.842,137.3384,,,,,,,,,,,,,,3.6077,1,,,,,,,,,,,,,,m,,,,,,,,,,,,,,,16,0,137.3387,140.9471,m,1,3.6077,,[],[],[],[],[],[],[],140.9471,142.9458,142.9459,142.9462,[],[],[],[],[],[],[],,142.9464,142.9465,0.176663543,-0.324742268,0,0,0,,0,15,15,149,1,1,word,SENATOR,cursive,senator_c.png,,,,,,
,,,,32387,001,2025-12-04_01h34.18.110,HW_LDT_1,2024.2.4,Win32,60.97560976,,,,,,,,,,,,,,,,,,,,142.9475,143.1438,143.1439,143.6468,,,,,,,,,,,,,,0.9502,1,,,,,,,,,,,,,,m,,,,,,,,,,,,,,,17,0,143.6473,144.5982,m,1,0.9502,,[],[],[],[],[],[],[],144.5983,146.5959,146.596,146.5962,[],[],[],[],[],[],[],,146.5964,146.5965,0.176663543,-0.324742268,0,0,0,,0,16,16,156,1,1,word,TRIBUTE,cursive,tribute_c.png,,,,,,
,,,,32387,001,2025-12-04_01h34.18.110,HW_LDT_1,2024.2.4,Win32,60.97560976,,,,,,,,,,,,,,,,,,,,146.5976,146.7915,146.7915,147.292,,,,,,,,,,,,,,2.0793,1,,,,,,,,,,,,,,z,,,,,,,,,,,,,,,18,0,147.2925,149.3727,z,1,2.0793,,[],[],[],[],[],[],[],149.3728,151.3718,151.3719,151.3721,[],[],[],[],[],[],[],,151.3722,151.3724,0.176663543,-0.324742268,0,0,0,,0,17,17,76,1,1,TL,stragety,cursive,stragety_c.png,,,,,,
,,,,32387,001,2025-12-04_01h34.18.110,HW_LDT_1,2024.2.4,Win32,60.97560976,,,,,,,,,,,,,,,,,,,,151.3733,151.5666,151.5667,152.0668,,,,,,,,,,,,,,2.5885,1,,,,,,,,,,,,,,m,,,,,,,,,,,,,,,19,0,152.0681,154.6582,m,1,2.5885,,[],[],[],[],[],[],[],154.6583,156.6579,156.658,156.6582,[],[],[],[],[],[],[],,156.6582,156.659,0.176663543,-0.324742268,0,0,0,,0,18,18,100,1,1,word,DECADE,print,decade_p.png,,,,,,
,,,,32387,001,2025-12-04_01h34.18.110,HW_LDT_1,2024.2.4,Win32,60.97560976,,,,,,,,,,,,,,,,,,,,156.6604,156.858,156.858,157.3621,,,,,,,,,,,,,,1.5599,1,,,,,,,,,,,,,,m,,,,,,,,,,,,,,,20,0,157.3626,158.9231,m,1,1.5599,,[],[],[],[],[],[],[],158.9232,160.9222,160.9223,160.9225,[],[],[],[],[],[],[],,160.9226,160.9227,0.176663543,-0.324742268,0,0,0,,0,19,19,118,1,1,word,MEDICINE,cursive,medicine_c.png,,,,,,
,,,,32387,001,2025-12-04_01h34.18.110,HW_LDT_1,2024.2.4,Win32,60.97560976,,,,,,,,,,,,,,,,,,,,160.9237,161.1171,161.1172,161.6217,,,,,,,,,,,,,,0.9311,1,,,,,,,,,,,,,,m,,,,,,,,,,,,,,,21,0,161.6223,162.5547,m,1,0.9311,,[],[],[],[],[],[],[],162.5548,164.5563,164.5565,164.5566,[],[],[],[],[],[],[],,164.5567,164.5568,0.176663543,-0.324742268,0,0,0,,0,20,20,115,1,1,word,LOGICAL,cursive,logical_c.png,,,,,,
,,,,32387,001,2025-12-04_01h34.18.110,HW_LDT_1,2024.2.4,Win32,60.97560976,,,,,,,,,,,,,,,,,,,,164.5576,164.7552,164.7552,165.2543,,,,,,,,,,,,,,1.3827,1,,,,,,,,,,,,,,z,,,,,,,,,,,,,,,22,0,165.2548,166.6381,z,1,1.3827,,[],[],[],[],[],[],[],166.6382,168.6379,168.6379,168.638,[],[],[],[],[],[],[],,168.638,168.6381,0.176663543,-0.324742268,0,0,0,,0,21,21,40,1,1,TL,atameur,print,atameur_p.png,,,,,,
,,,,32387,001,2025-12-04_01h34.18.110,HW_LDT_1,2024.2.4,Win32,60.97560976,,,,,,,,,,,,,,,,,,,,168.6394,168.8397,168.8397,169.3384,,,,,,,,,,,,,,0.9736,1,,,,,,,,,,,,,,m,,,,,,,,,,,,,,,23,0,169.3391,170.3139,m,1,0.9736,,[],[],[],[],[],[],[],170.3139,172.3131,172.3132,172.3134,[],[],[],[],[],[],[],,172.3135,172.3135,0.176663543,-0.324742268,0,0,0,,0,22,22,127,1,1,word,ORIGINAL,cursive,original_c.png,,,,,,
,,,,32387,001,2025-12-04_01h34.18.110,HW_LDT_1,2024.2.4,Win32,60.97560976,,,,,,,,,,,,,,,,,,,,172.3144,172.5088,172.5088,173.0134,,,,,,,,,,,,,,1.0056,1,,,,,,,,,,,,,,z,,,,,,,,,,,,,,,24,1,173.014,174.0203,z,1,1.0056,,[],[],[],[],[],[],[],174.0203,176.016,176.0161,177.9001,[],[],[],[],[],[],[],z,177.9003,177.9005,0.176663543,-0.324742268,0,0,0,,0,23,23,79,1,1,TL,veretan,print,veretan_p.png,1.88,,,,,
,,,,32387,001,2025-12-04_01h34.18.110,HW_LDT_1,2024.2.4,Win32,60.97560976,,,,,,,,,,,,,,,,,,,,177.9021,178.0956,178.0959,178.5974,,,,,,,,,,,,,,4.3815,1,,,,,,,,,,,,,,z,,,,,,,,,,,,,,,25,0,178.5981,182.9804,z,1,4.3815,,[],[],[],[],[],[],[],182.9805,184.9795,184.9795,184.9797,[],[],[],[],[],[],[],,184.9797,184.9798,0.176663543,-0.324742268,0,0,0,,0,24,24,48,1,1,TL,cemerony,cursive,cemerony_c.png,,,,,,
,,,,32387,001,2025-12-04_01h34.18.110,HW_LDT_1,2024.2.4,Win32,60.97560976,,,,,,,,,,,,,,,,,,,,184.9809,185.1743,185.1744,185.675,,,,,,,,,,,,,,2.0365,1,,,,,,,,,,,,,,m,,,,,,,,,,,,,,,26,1,185.6755,187.7123,m,1,2.0365,,[],[],[],[],[],[],[],187.7124,189.7131,189.7131,191.3291,[],[],[],[],[],[],[],z,191.3293,191.3294,0.176663543,-0.324742268,0,0,0,,0,25,25,94,1,1,word,CLINICAL,cursive,clinical_c.png,1.6157,,,,,
,,,,32387,001,2025-12-04_01h34.18.110,HW_LDT_1,2024.2.4,Win32,60.97560976,,,,,,,,,,,,,,,,,,,,191.3302,191.5242,191.5243,192.0258,,,,,,,,,,,,,,1.3678,1,,,,,,,,,,,,,,m,,,,,,,,,,,,,,,27,0,192.0262,193.4001,m,1,1.3678,,[],[],[],[],[],[],[],193.4003,195.3944,195.3947,195.395,[],[],[],[],[],[],[],,195.3951,195.3951,0.176663543,-0.324742268,0,0,0,,0,26,26,142,1,1,word,REMOTE,print,remote_p.png,,,,,,
,,,,32387,001,2025-12-04_01h34.18.110,HW_LDT_1,2024.2.4,Win32,60.97560976,,,,,,,,,,,,,,,,,,,,195.3964,195.597,195.5971,196.0959,,,,,,,,,,,,,,2.3755,1,,,,,,,,,,,,,,m,,,,,,,,,,,,,,,28,0,196.0962,198.4749,m,1,2.3755,,[],[],[],[],[],[],[],198.4751,200.4722,200.4723,200.4724,[],[],[],[],[],[],[],,200.4725,200.4726,0.176663543,-0.324742268,0,0,0,,0,27,27,143,1,1,word,REMOVAL,cursive,removal_c.png,,,,,,
,,,,32387,001,2025-12-04_01h34.18.110,HW_LDT_1,2024.2.4,Win32,60.97560976,,,,,,,,,,,,,,,,,,,,200.4739,200.675,200.675,201.167,,,,,,,,,,,,,,2.145,1,,,,,,,,,,,,,,z,,,,,,,,,,,,,,,29,0,201.1679,203.3139,z,1,2.145,,[],[],[],[],[],[],[],203.314,205.3127,205.3127,205.3132,[],[],[],[],[],[],[],,205.3132,205.3133,0.176663543,-0.324742268,0,0,0,,0,28,28,26,1,1,RL,quafidy,cursive,quafidy_c.png,,,,,,
,,,,32387,001,2025-12-04_01h34.18.110,HW_LDT_1,2024.2.4,Win32,60.97560976,,,,,,,,,,,,,,,,,,,,205.3139,205.5116,205.5116,206.0132,,,,,,,,,,,,,,1.1158,1,,,,,,,,,,,,,,z,,,,,,,,,,,,,,,30,0,206.0136,207.1304,z,1,1.1158,,[],[],[],[],[],[],[],207.1306,209.1299,209.1299,209.1301,[],[],[],[],[],[],[],,209.1301,209.1302,0.176663543,-0.324742268,0,0,0,,0,29,29,18,1,1,RL,mishafe,print,mishafe_p.png,,,,,,
,,,,32387,001,2025-12-04_01h34.18.110,HW_LDT_1,2024.2.4,Win32,60.97560976,,,,,,,,,,,,,,,,,,,,209.131,209.3203,209.3209,209.8334,,,,,,,,,,,,,,1.4113,1,,,,,,,,,,,,,,z,,,,,,,,,,,,,,,31,0,209.8342,211.2466,z,1,1.4113,,[],[],[],[],[],[],[],211.2466,213.2461,213.2462,213.2465,[],[],[],[],[],[],[],,213.2465,213.2466,0.176663543,-0.324742268,0,0,0,,0,30,30,8,1,1,RL,debave,print,debave_p.png,,,,,,
,,,,32387,001,2025-12-04_01h34.18.110,HW_LDT_1,2024.2.4,Win32,60.97560976,,,,,,,,,,,,,,,,,,,,213.2472,213.441,213.441,213.9494,,,,,,,,,,,,,,1.7122,1,,,,,,,,,,,,,,z,,,,,,,,,,,,,,,32,0,213.9498,215.6657,z,1,1.7122,,[],[],[],[],[],[],[],215.6658,217.666,217.6661,217.6663,[],[],[],[],[],[],[],,217.6663,217.6665,0.176663543,-0.324742268,0,0,0,,0,31,31,9,1,1,RL,docirant,cursive,docirant_c.png,,,,,,
,,,,32387,001,2025-12-04_01h34.18.110,HW_LDT_1,2024.2.4,Win32,60.97560976,,,,,,,,,,,,,,,,,,,,217.6679,217.8591,217.8591,218.3632,,,,,,,,,,,,,,1.3984,1,,,,,,,,,,,,,,z,,,,,,,,,,,,,,,33,1,218.3636,219.7668,z,1,1.3984,,[],[],[],[],[],[],[],219.7669,221.763,221.7632,223.5958,[],[],[],[],[],[],[],z,223.5959,223.596,0.176663543,-0.324742268,0,0,0,,0,32,32,27,1,1,RL,rasibal,print,rasibal_p.png,1.8322,,,,,
,,,,32387,001,2025-12-04_01h34.18.110,HW_LDT_1,2024.2.4,Win32,60.97560976,,,,,,,,,,,,,,,,,,,,223.5966,223.7909,223.7909,224.2907,,,,,,,,,,,,,,0.8204,1,,,,,,,,,,,,,,m,,,,,,,,,,,,,,,34,0,224.2915,225.1132,m,1,0.8204,,[],[],[],[],[],[],[],225.1132,227.1118,227.112,227.1122,[],[],[],[],[],[],[],,227.1123,227.1123,0.176663543,-0.324742268,0,0,0,,0,33,33,108,1,1,word,FORTUNE,print,fortune_p.png,,,,,,
,,,,32387,001,2025-12-04_01h34.18.110,HW_LDT_1,2024.2.4,Win32,60.97560976,,,,,,,,,,,,,,,,,,,,227.1131,227.3116,227.3116,227.8125,,,,,,,,,,,,,,3.0071,1,,,,,,,,,,,,,,m,,,,,,,,,,,,,,,35,1,227.8132,230.8212,m,1,3.0071,,[],[],[],[],[],[],[],230.8213,232.8206,232.8207,234.4542,[],[],[],[],[],[],[],m,234.4543,234.4543,0.176663543,-0.324742268,0,0,0,,0,34,34,84,1,1,word,BELOVED,print,beloved_p.png,1.6331,,,,,
,,,,32387,001,2025-12-04_01h34.18.110,HW_LDT_1,2024.2.4,Win32,60.97560976,,,,,,,,,,,,,,,,,,,,234.455,234.6487,234.6488,235.1486,,,,,,,,,,,,,,1.2215,1,,,,,,,,,,,,,,z,,,,,,,,,,,,,,,36,0,235.1492,236.372,z,1,1.2215,,[],[],[],[],[],[],[],236.3721,238.3713,238.3714,238.3716,[],[],[],[],[],[],[],,238.3716,238.3716,0.176663543,-0.324742268,0,0,0,,0,35,35,39,1,1,RL,vabifity,cursive,vabifity_c.png,,,,,,
,,,,32387,001,2025-12-04_01h34.18.110,HW_LDT_1,2024.2.4,Win32,60.97560976,,,,,,,,,,,,,,,,,,,,238.3726,238.5671,238.5671,239.0712,,,,,,,,,,,,,,2.1323,1,,,,,,,,,,,,,,m,,,,,,,,,,,,,,,37,1,239.0717,241.205,m,1,2.1323,,[],[],[],[],[],[],[],241.205,243.2037,243.2037,244.3966,[],[],[],[],[],[],[],m,244.3966,244.3967,0.176663543,-0.324742268,0,0,0,,0,36,36,126,1,1,word,OPTIMAL,print,optimal_p.png,1.1922,,,,,
,,,,32387,001,2025-12-04_01h34.18.110,HW_LDT_1,2024.2.4,Win32,60.97560976,,,,,,,,,,,,,,,,,,,,244.3973,244.5957,244.5958,245.0962,,,,,,,,,,,,,,1.0987,1,,,,,,,,,,,,,,z,,,,,,,,,,,,,,,38,0,245.0967,246.1962,z,1,1.0987,,[],[],[],[],[],[],[],246.1962,248.1964,248.1965,248.1968,[],[],[],[],[],[],[],,248.1968,248.1969,0.176663543,-0.324742268,0,0,0,,0,37,37,3,1,1,RL,casena,cursive,casena_c.png,,,,,,
,,,,32387,001,2025-12-04_01h34.18.110,HW_LDT_1,2024.2.4,Win32,60.97560976,,,,,,,,,,,,,,,,,,,,248.1976,248.3964,248.3965,248.8923,,,,,,,,,,,,,,2.4768,1,,,,,,,,,,,,,,z,,,,,,,,,,,,,,,39,0,248.893,251.3711,z,1,2.4768,,[],[],[],[],[],[],[],251.3712,253.3668,253.3669,253.3671,[],[],[],[],[],[],[],,253.3672,253.3672,0.176663543,-0.324742268,0,0,0,,0,38,38,21,1,1,RL,opcifal,print,opcifal_p.png,,,,,,
,,,,32387,001,2025-12-04_01h34.18.110,HW_LDT_1,2024.2.4,Win32,60.97560976,,,,,,,,,,,,,,,,,,,,253.3695,253.5616,253.5618,254.0665,,,,,,,,,,,,,,4.0511,1,,,,,,,,,,,,,,z,,,,,,,,,,,,,,,40,0,254.0674,258.1198,z,1,4.0511,,[],[],[],[],[],[],[],258.1198,260.1209,260.1213,260.1215,[],[],[],[],[],[],[],,260.1215,260.1216,0.176663543,-0.324742268,0,0,0,,0,39,39,23,1,1,RL,potugar,cursive,potugar_c.png,,,,,,
,,,,32387,001,2025-12-04_01h34.18.110,HW_LDT_1,2024.2.4,Win32,60.97560976,,,,,,,,,,,,,,,,,,,,260.1227,260.3204,260.3205,260.8214,,,,,,,,,,,,,,1.0065,1,,,,,,,,,,,,,,z,,,,,,,,,,,,,,,41,0,260.8221,261.8294,z,1,1.0065,,[],[],[],[],[],[],[],261.8294,263.8291,263.8293,263.8293,[],[],[],[],[],[],[],,263.8293,263.8293,0.176663543,-0.324742268,0,0,0,,0,40,40,72,1,1,TL,remuse,print,remuse_p.png,,,,,,
,,,,32387,001,2025-12-04_01h34.18.110,HW_LDT_1,2024.2.4,Win32,60.97560976,,,,,,,,,,,,,,,,,,,,263.8301,264.0239,264.0239,264.5242,,,,,,,,,,,,,,1.1327,1,,,,,,,,,,,,,,z,,,,,,,,,,,,,,,42,0,264.5247,265.6582,z,1,1.1327,,[],[],[],[],[],[],[],265.6583,267.6521,267.6521,267.6523,[],[],[],[],[],[],[],,267.6523,267.6524,0.176663543,-0.324742268,0,0,0,,0,41,41,77,1,1,TL,tritube,cursive,tritube_c.png,,,,,,
,,,,32387,001,2025-12-04_01h34.18.110,HW_LDT_1,2024.2.4,Win32,60.97560976,,,,,,,,,,,,,,,,,,,,267.6536,267.8536,267.8537,268.3488,,,,,,,,,,,,,,2.1198,1,,,,,,,,,,,,,,m,,,,,,,,,,,,,,,43,0,268.3494,270.4747,m,1,2.1198,,[],[],[],[],[],[],[],270.4749,272.474,272.4741,272.4742,[],[],[],[],[],[],[],,272.4742,272.4744,0.176663543,-0.324742268,0,0,0,,0,42,42,96,1,1,word,CONSIDER,cursive,consider_c.png,,,,,,
,,,,32387,001,2025-12-04_01h34.18.110,HW_LDT_1,2024.2.4,Win32,60.97560976,,,,,,,,,,,,,,,,,,,,272.4758,272.6782,272.6782,273.1738,,,,,,,,,,,,,,2.3957,1,,,,,,,,,,,,,,z,,,,,,,,,,,,,,,44,0,273.1749,275.5716,z,1,2.3957,,[],[],[],[],[],[],[],275.5718,277.5704,277.5704,277.5706,[],[],[],[],[],[],[],,277.5707,277.5708,0.176663543,-0.324742268,0,0,0,,0,43,43,13,1,1,RL,linefal,print,linefal_p.png,,,,,,
,,,,32387,001,2025-12-04_01h34.18.110,HW_LDT_1,2024.2.4,Win32,60.97560976,,,,,,,,,,,,,,,,,,,,277.5723,277.7652,277.7653,278.2652,,,,,,,,,,,,,,1.3295,1,,,,,,,,,,,,,,z,,,,,,,,,,,,,,,45,1,278.2656,279.5958,z,1,1.3295,,[],[],[],[],[],[],[],279.5959,281.5903,281.5904,283.4954,[],[],[],[],[],[],[],z,283.4955,283.4956,0.176663543,-0.324742268,0,0,0,,0,44,44,17,1,1,RL,menowy,cursive,menowy_c.png,1.9046,,,,,
,,,,32387,001,2025-12-04_01h34.18.110,HW_LDT_1,2024.2.4,Win32,60.97560976,,,,,,,,,,,,,,,,,,,,283.4967,283.6946,283.6947,284.1958,,,,,,,,,,,,,,1.0825,1,,,,,,,,,,,,,,z,,,,,,,,,,,,,,,46,1,284.1962,285.282,z,1,1.0825,,[],[],[],[],[],[],[],285.2821,287.2816,287.2816,289.8067,[],[],[],[],[],[],[],z,289.8068,289.8068,0.176663543,-0.324742268,0,0,0,,0,45,45,28,1,1,RL,renutal,print,renutal_p.png,2.5222,,,,,
,,,,32387,001,2025-12-04_01h34.18.110,HW_LDT_1,2024.2.4,Win32,60.97560976,,,,,,,,,,,,,,,,,,,,289.8089,290.0091,290.0092,290.5016,,,,,,,,,,,,,,0.6841,1,,,,,,,,,,,,,,z,,,,,,,,,,,,,,,47,0,290.502,291.1867,z,1,0.6841,,[],[],[],[],[],[],[],291.1869,293.1873,293.1873,293.1875,[],[],[],[],[],[],[],,293.1875,293.1875,0.176663543,-0.324742268,0,0,0,,0,46,46,37,1,1,RL,skofen,print,skofen_p.png,,,,,,
,,,,32387,001,2025-12-04_01h34.18.110,HW_LDT_1,2024.2.4,Win32,60.97560976,,,,,,,,,,,,,,,,,,,,293.1887,293.3866,293.3867,293.8872,,,,,,,,,,,,,,2.42,1,,,,,,,,,,,,,,m,,,,,,,,,,,,,,,48,0,293.8878,296.3088,m,1,2.42,,[],[],[],[],[],[],[],296.3089,298.3077,298.3077,298.308,[],[],[],[],[],[],[],,298.308,298.3081,0.171665181,-0.32786633,0,0,0,,0,47,47,93,1,1,word,CEREMONY,cursive,ceremony_c.png,,,,,,
,,,,32387,001,2025-12-04_01h34.18.110,HW_LDT_1,2024.2.4,Win32,60.97560976,,,,,,,,,,,,,,,,,,,,298.3093,298.5022,298.5022,299.0075,,,,,,,,,,,,,,4.4785,1,,,,,,,,,,,,,,z,,,,,,,,,,,,,,,49,0,299.0081,303.4877,z,1,4.4785,,[],[],[],[],[],[],[],303.4879,305.4828,305.4829,305.483,[],[],[],[],[],[],[],,305.483,305.483,0.1710403,-0.325367092,0,0,0,,0,48,48,66,1,1,TL,panert,cursive,panert_c.png,,,,,,
,,,,32387,001,2025-12-04_01h34.18.110,HW_LDT_1,2024.2.4,Win32,60.97560976,,,,,,,,,,,,,,,,,,,,305.4842,305.682,305.682,306.1827,,,,,,,,,,,,,,3.0367,1,,,,,,,,,,,,,,z,,,,,,,,,,,,,,,50,1,306.1834,309.2208,z,1,3.0367,,[],[],[],[],[],[],[],309.2209,311.2192,311.2192,317.2956,[],[],[],[],[],[],[],m,317.2957,317.2957,0.1710403,-0.325367092,0,0,0,,0,49,49,7,1,1,RL,delahe,print,delahe_p.png,6.0758,,,,,
,,,,32387,001,2025-12-04_01h34.18.110,HW_LDT_1,2024.2.4,Win32,60.97560976,,,,,,,,,,,,,,,,,,,,317.2965,317.4904,317.4904,317.9923,,,,,,,,,,,,,,16.2272,1,,,,,,,,,,,,,,m,,,,,,,,,,,,,,,51,0,317.9927,334.2208,m,1,16.2272,,[],[],[],[],[],[],[],334.2209,336.2192,336.2193,336.2195,[],[],[],[],[],[],[],,336.2195,336.2196,0.180412371,-0.324742268,0,0,0,,0,50,50,131,1,1,word,POPULAR,cursive,popular_c.png,,,,,,
,,,,32387,001,2025-12-04_01h34.18.110,HW_LDT_1,2024.2.4,Win32,60.97560976,,,,,,,,,,,,,,,,,,,,336.2205,336.4152,336.4153,336.9154,,,,,,,,,,,,,,1.8952,1,,,,,,,,,,,,,,z,,,,,,,,,,,,,,,52,0,336.9161,338.8125,z,1,1.8952,,[],[],[],[],[],[],[],338.8125,340.8076,340.8077,340.808,[],[],[],[],[],[],[],,340.808,340.8081,0.180412371,-0.324742268,0,0,0,,0,51,51,36,1,1,RL,speniven,cursive,speniven_c.png,,,,,,
,,,,32387,001,2025-12-04_01h34.18.110,HW_LDT_1,2024.2.4,Win32,60.97560976,,,,,,,,,,,,,,,,,,,,340.8097,341.0037,341.0037,341.5031,,,,,,,,,,,,,,6.2746,1,,,,,,,,,,,,,,z,,,,,,,,,,,,,,,53,0,341.5035,347.7786,z,1,6.2746,,[],[],[],[],[],[],[],347.7787,349.7786,349.7786,349.7789,[],[],[],[],[],[],[],,349.7789,349.779,0.180412371,-0.324742268,0,0,0,,0,52,52,75,1,1,TL,speficic,cursive,speficic_c.png,,,,,,
,,,,32387,001,2025-12-04_01h34.18.110,HW_LDT_1,2024.2.4,Win32,60.97560976,,,,,,,,,,,,,,,,,,,,349.7802,349.973,349.973,350.4734,,,,,,,,,,,,,,1.3878,1,,,,,,,,,,,,,,z,,,,,,,,,,,,,,,54,0,350.4739,351.8625,z,1,1.3878,,[],[],[],[],[],[],[],351.8626,353.8615,353.8616,353.8616,[],[],[],[],[],[],[],,353.8616,353.8618,0.180412371,-0.324742268,0,0,0,,0,53,53,51,1,1,TL,corevage,print,corevage_p.png,,,,,,
,,,,32387,001,2025-12-04_01h34.18.110,HW_LDT_1,2024.2.4,Win32,60.97560976,,,,,,,,,,,,,,,,,,,,353.8625,354.0616,354.0616,354.5615,,,,,,,,,,,,,,5.8326,1,,,,,,,,,,,,,,m,,,,,,,,,,,,,,,55,0,354.5622,360.3952,m,1,5.8326,,[],[],[],[],[],[],[],360.3954,362.3939,362.3941,362.3942,[],[],[],[],[],[],[],,362.3942,362.3942,0.180412371,-0.324742268,0,0,0,,0,54,54,109,1,1,word,GRATEFUL,print,grateful_p.png,,,,,,
,,,,32387,001,2025-12-04_01h34.18.110,HW_LDT_1,2024.2.4,Win32,60.97560976,,,,,,,,,,,,,,,,,,,,362.395,362.5897,362.5898,363.088,,,,,,,,,,,,,,2.5963,1,,,,,,,,,,,,,,m,,,,,,,,,,,,,,,56,1,363.0887,365.687,m,1,2.5963,,[],[],[],[],[],[],[],365.6872,367.687,367.6871,369.1696,[],[],[],[],[],[],[],z,369.1697,369.1698,0.180412371,-0.324742268,0,0,0,,0,55,55,101,1,1,word,DELICATE,cursive,delicate_c.png,1.482,,,,,
,,,,32387,001,2025-12-04_01h34.18.110,HW_LDT_1,2024.2.4,Win32,60.97560976,,,,,,,,,,,,,,,,,,,,369.1705,369.3646,369.3646,369.8645,,,,,,,,,,,,,,1.0287,0,,,,,,,,,,,,,,m,,,,,,,,,,,,,,,57,0,369.8652,370.8946,z,0,1.0287,,[],[],[],[],[],[],[],370.8947,372.8942,372.8942,372.8944,[],[],[],[],[],[],[],,372.8945,372.8945,0.180412371,-0.324742268,0,0,0,,0,56,56,125,1,1,word,OPERATOR,cursive,operator_c.png,,,,,,
,,,,32387,001,2025-12-04_01h34.18.110,HW_LDT_1,2024.2.4,Win32,60.97560976,,,,,,,,,,,,,,,,,,,,372.8953,373.0892,373.0892,373.5895,,,,,,,,,,,,,,1.2202,1,,,,,,,,,,,,,,m,,,,,,,,,,,,,,,58,0,373.5906,374.8119,m,1,1.2202,,[],[],[],[],[],[],[],374.812,376.806,376.806,376.8063,[],[],[],[],[],[],[],,376.8064,376.8064,0.180412371,-0.324742268,0,0,0,,0,57,57,102,1,1,word,DENSITY,cursive,density_c.png,,,,,,
,,,,32387,001,2025-12-04_01h34.18.110,HW_LDT_1,2024.2.4,Win32,60.97560976,,,,,,,,,,,,,,,,,,,,376.8077,377.0062,377.0063,377.5069,,,,,,,,,,,,,,2.5103,1,,,,,,,,,,,,,,m,,,,,,,,,,,,,,,59,0,377.5078,380.0192,m,1,2.5103,,[],[],[],[],[],[],[],380.0195,382.0193,382.0193,382.0196,[],[],[],[],[],[],[],,382.0196,382.0197,0.180412371,-0.324742268,0,0,0,,0,58,58,147,1,1,word,ROMANTIC,cursive,romantic_c.png,,,,,,
,,,,32387,001,2025-12-04_01h34.18.110,HW_LDT_1,2024.2.4,Win32,60.97560976,,,,,,,,,,,,,,,,,,,,382.0203,382.219,382.219,382.7202,,,,,,,,,,,,,,1.706,1,,,,,,,,,,,,,,m,,,,,,,,,,,,,,,60,0,382.7205,384.432,m,1,1.706,,[],[],[],[],[],[],[],384.4322,386.428,386.428,386.4281,[],[],[],[],[],[],[],,386.4281,386.4281,0.180412371,-0.324742268,0,0,0,,0,59,59,117,1,1,word,MARINE,print,marine_p.png,,,,,,
,,,,32387,001,2025-12-04_01h34.18.110,HW_LDT_1,2024.2.4,Win32,60.97560976,,,,,,,,,,,,,,,,,,,,386.4295,386.6256,386.6256,387.1278,,,,,,,,,,,,,,1.7578,1,,,,,,,,,,,,,,m,,,,,,,,,,,,,,,61,0,387.1283,388.8867,m,1,1.7578,,[],[],[],[],[],[],[],388.8869,390.883,390.8831,390.8833,[],[],[],[],[],[],[],,390.8833,390.8834,0.180412371,-0.324742268,0,0,0,,0,60,60,151,1,1,word,SPECIFIC,cursive,specific_c.png,,,,,,
,,,,32387,001,2025-12-04_01h34.18.110,HW_LDT_1,2024.2.4,Win32,60.97560976,,,,,,,,,,,,,,,,,,,,390.8845,391.0819,391.0819,391.5808,,,,,,,,,,,,,,2.637,1,,,,,,,,,,,,,,m,,,,,,,,,,,,,,,62,0,391.5814,394.2195,m,1,2.637,,[],[],[],[],[],[],[],394.2196,396.2143,396.2145,396.2147,[],[],[],[],[],[],[],,396.2148,396.2148,0.180412371,-0.324742268,0,0,0,,0,61,61,81,1,1,word,ADVISORY,cursive,advisory_c.png,,,,,,
,,,,32387,001,2025-12-04_01h34.18.110,HW_LDT_1,2024.2.4,Win32,60.97560976,,,,,,,,,,,,,,,,,,,,396.2169,396.414,396.414,396.9105,,,,,,,,,,,,,,2.6321,1,,,,,,,,,,,,,,m,,,,,,,,,,,,,,,63,0,396.9111,399.5437,m,1,2.6321,,[],[],[],[],[],[],[],399.5437,401.5438,401.5438,401.5438,[],[],[],[],[],[],[],,401.5439,401.5439,0.180412371,-0.324742268,0,0,0,,0,62,62,129,1,1,word,PARENT,cursive,parent_c.png,,,,,,
,,,,32387,001,2025-12-04_01h34.18.110,HW_LDT_1,2024.2.4,Win32,60.97560976,,,,,,,,,,,,,,,,,,,,401.5447,401.7402,401.7402,402.239,,,,,,,,,,,,,,2.5716,1,,,,,,,,,,,,,,z,,,,,,,,,,,,,,,64,0,402.2394,404.8142,z,1,2.5716,,[],[],[],[],[],[],[],404.8143,406.8138,406.8139,406.8141,[],[],[],[],[],[],[],,406.8142,406.8143,0.180412371,-0.324742268,0,0,0,,0,63,63,0,1,1,RL,abanemy,cursive,abanemy_c.png,,,,,,
,,,,32387,001,2025-12-04_01h34.18.110,HW_LDT_1,2024.2.4,Win32,60.97560976,,,,,,,,,,,,,,,,,,,,406.8153,407.1731,407.1732,407.5125,,,,,,,,,,,,,,1.0252,1,,,,,,,,,,,,,,m,,,,,,,,,,,,,,,65,0,407.513,408.54,m,1,1.0252,,[],[],[],[],[],[],[],408.5401,410.5351,410.5351,410.5354,[],[],[],[],[],[],[],,410.5355,410.5355,0.180412371,-0.324742268,0,0,0,,0,64,64,119,1,1,word,MEMORY,cursive,memory_c.png,,,,,,
,,,,32387,001,2025-12-04_01h34.18.110,HW_LDT_1,2024.2.4,Win32,60.97560976,,,,,,,,,,,,,,,,,,,,410.5362,410.7307,410.7308,411.2359,,,,,,,,,,,,,,2.9286,0,,,,,,,,,,,,,,z,,,,,,,,,,,,,,,66,1,411.2362,414.1657,m,0,2.9286,,[],[],[],[],[],[],[],414.1658,416.1609,416.1609,417.206,[],[],[],[],[],[],[],z,417.206,417.2061,0.180412371,-0.324742268,0,0,0,,0,65,65,1,1,1,RL,adnicory,cursive,adnicory_c.png,1.0431,,,,,
,,,,32387,001,2025-12-04_01h34.18.110,HW_LDT_1,2024.2.4,Win32,60.97560976,,,,,,,,,,,,,,,,,,,,417.2077,417.4059,417.4059,417.9059,,,,,,,,,,,,,,1.6043,1,,,,,,,,,,,,,,z,,,,,,,,,,,,,,,67,1,417.9064,419.5114,z,1,1.6043,,[],[],[],[],[],[],[],419.5115,421.506,421.5062,422.5945,[],[],[],[],[],[],[],z,422.5945,422.5946,0.180412371,-0.324742268,0,0,0,,0,66,66,68,1,1,TL,prosopal,cursive,prosopal_c.png,1.0879,,,,,
,,,,32387,001,2025-12-04_01h34.18.110,HW_LDT_1,2024.2.4,Win32,60.97560976,,,,,,,,,,,,,,,,,,,,422.5957,422.7887,422.7887,423.2935,,,,,,,,,,,,,,1.5417,1,,,,,,,,,,,,,,z,,,,,,,,,,,,,,,68,0,423.2939,424.839,z,1,1.5417,,[],[],[],[],[],[],[],424.839,426.8393,426.8395,426.8398,[],[],[],[],[],[],[],,426.8398,426.84,0.180412371,-0.324742268,0,0,0,,0,67,67,32,1,1,RL,rebicent,print,rebicent_p.png,,,,,,
,,,,32387,001,2025-12-04_01h34.18.110,HW_LDT_1,2024.2.4,Win32,60.97560976,,,,,,,,,,,,,,,,,,,,426.8421,427.036,427.0362,427.5393,,,,,,,,,,,,,,1.0211,1,,,,,,,,,,,,,,m,,,,,,,,,,,,,,,69,0,427.5398,428.562,m,1,1.0211,,[],[],[],[],[],[],[],428.562,430.5614,430.5614,430.5618,[],[],[],[],[],[],[],,430.5619,430.5619,0.180412371,-0.324742268,0,0,0,,0,68,68,92,1,1,word,CATEGORY,print,category_p.png,,,,,,
,,,,32387,001,2025-12-04_01h34.18.110,HW_LDT_1,2024.2.4,Win32,60.97560976,,,,,,,,,,,,,,,,,,,,430.5629,430.7642,430.7642,431.2646,,,,,,,,,,,,,,3.2474,1,,,,,,,,,,,,,,z,,,,,,,,,,,,,,,70,0,431.2651,434.514,z,1,3.2474,,[],[],[],[],[],[],[],434.514,436.514,436.5141,436.5142,[],[],[],[],[],[],[],,436.5142,436.5143,0.180412371,-0.324742268,0,0,0,,0,69,69,44,1,1,TL,cateferia,cursive,cateferia_c.png,,,,,,
,,,,32387,001,2025-12-04_01h34.18.110,HW_LDT_1,2024.2.4,Win32,60.97560976,,,,,,,,,,,,,,,,,,,,436.5154,436.71,436.71,437.2107,,,,,,,,,,,,,,0.8497,1,,,,,,,,,,,,,,m,,,,,,,,,,,,,,,71,0,437.2113,438.0636,m,1,0.8497,,[],[],[],[],[],[],[],438.0636,440.0608,440.0608,440.0609,[],[],[],[],[],[],[],,440.061,440.0611,0.180412371,-0.324742268,0,0,0,,0,70,70,124,1,1,word,NUMERICAL,print,numerical_p.png,,,,,,
,,,,32387,001,2025-12-04_01h34.18.110,HW_LDT_1,2024.2.4,Win32,60.97560976,,,,,,,,,,,,,,,,,,,,440.0618,440.2615,440.2615,440.7555,,,,,,,,,,,,,,1.485,1,,,,,,,,,,,,,,m,,,,,,,,,,,,,,,72,0,440.7559,442.2419,m,1,1.485,,[],[],[],[],[],[],[],442.2419,444.2362,444.2363,444.2364,[],[],[],[],[],[],[],,444.2364,444.2365,0.180412371,-0.324742268,0,0,0,,0,71,71,141,1,1,word,RELIGION,cursive,religion_c.png,,,,,,
,,,,32387,001,2025-12-04_01h34.18.110,HW_LDT_1,2024.2.4,Win32,60.97560976,,,,,,,,,,,,,,,,,,,,444.2372,444.4353,444.4353,444.9311,,,,,,,,,,,,,,1.2108,1,,,,,,,,,,,,,,z,,,,,,,,,,,,,,,73,0,444.9316,446.1431,z,1,1.2108,,[],[],[],[],[],[],[],446.1431,448.1387,448.1387,448.1388,[],[],[],[],[],[],[],,448.1389,448.1389,0.180412371,-0.324742268,0,0,0,,0,72,72,47,1,1,TL,cagetory,print,cagetory_p.png,,,,,,
,,,,32387,001,2025-12-04_01h34.18.110,HW_LDT_1,2024.2.4,Win32,60.97560976,,,,,,,,,,,,,,,,,,,,448.1401,448.3389,448.3389,448.8358,,,,,,,,,,,,,,2.9775,1,,,,,,,,,,,,,,m,,,,,,,,,,,,,,,74,0,448.8362,451.8149,m,1,2.9775,,[],[],[],[],[],[],[],451.815,453.8142,453.8142,453.8144,[],[],[],[],[],[],[],,453.8144,453.8144,0.180412371,-0.324742268,0,0,0,,0,73,73,111,1,1,word,INDICATE,cursive,indicate_c.png,,,,,,
,,,,32387,001,2025-12-04_01h34.18.110,HW_LDT_1,2024.2.4,Win32,60.97560976,,,,,,,,,,,,,,,,,,,,453.8154,454.0097,454.0097,454.5138,,,,,,,,,,,,,,1.512,1,,,,,,,,,,,,,,m,,,,,,,,,,,,,,,75,1,454.5142,456.0272,m,1,1.512,,[],[],[],[],[],[],[],456.0272,458.0273,458.0273,459.1391,[],[],[],[],[],[],[],z,459.1392,459.1394,0.180412371,-0.324742268,0,0,0,,0,74,74,121,1,1,word,MISTAKE,print,mistake_p.png,1.1089,,,,,
,,,,32387,001,2025-12-04_01h34.18.110,HW_LDT_1,2024.2.4,Win32,60.97560976,,,,,,,,,,,,,,,,,,,,459.1411,459.3391,459.3391,459.8385,,,,,,,,,,,,,,1.8479,1,,,,,,,,,,,,,,m,,,,,,,,,,,,,,,76,1,459.8392,461.6887,m,1,1.8479,,[],[],[],[],[],[],[],461.6888,463.6885,463.6886,465.1135,[],[],[],[],[],[],[],z,465.1137,465.1138,0.180412371,-0.324742268,0,0,0,,0,75,75,153,1,1,word,STOLEN,print,stolen_p.png,1.4216,,,,,
,,,,32387,001,2025-12-04_01h34.18.110,HW_LDT_1,2024.2.4,Win32,60.97560976,,,,,,,,,,,,,,,,,,,,465.1153,465.3133,465.3134,465.8132,,,,,,,,,,,,,,1.3542,1,,,,,,,,,,,,,,m,,,,,,,,,,,,,,,77,0,465.8138,467.1694,m,1,1.3542,,[],[],[],[],[],[],[],467.1694,469.1683,469.1684,469.1686,[],[],[],[],[],[],[],,469.1686,469.1687,0.180412371,-0.324742268,0,0,0,,0,76,76,120,1,1,word,MILITARY,print,military_p.png,,,,,,
,,,,32387,001,2025-12-04_01h34.18.110,HW_LDT_1,2024.2.4,Win32,60.97560976,,,,,,,,,,,,,,,,,,,,469.1702,469.3636,469.3636,469.8644,,,,,,,,,,,,,,1.204,1,,,,,,,,,,,,,,z,,,,,,,,,,,,,,,78,0,469.8654,471.0707,z,1,1.204,,[],[],[],[],[],[],[],471.0709,473.0691,473.0691,473.07,[],[],[],[],[],[],[],,473.07,473.07,0.180412371,-0.324742268,0,0,0,,0,77,77,70,1,1,TL,relugar,print,relugar_p.png,,,,,,
,,,,32387,001,2025-12-04_01h34.18.110,HW_LDT_1,2024.2.4,Win32,60.97560976,,,,,,,,,,,,,,,,,,,,473.071,473.2675,473.2675,473.7732,,,,,,,,,,,,,,2.9935,1,,,,,,,,,,,,,,m,,,,,,,,,,,,,,,79,0,473.7741,476.7717,m,1,2.9935,,[],[],[],[],[],[],[],476.7719,478.7687,478.7687,478.7688,[],[],[],[],[],[],[],,478.7688,478.769,0.180412371,-0.324742268,0,0,0,,0,78,78,110,1,1,word,HERITAGE,cursive,heritage_c.png,,,,,,
,,,,32387,001,2025-12-04_01h34.18.110,HW_LDT_1,2024.2.4,Win32,60.97560976,,,,,,,,,,,,,,,,,,,,478.7697,478.9691,478.9693,479.4688,,,,,,,,,,,,,,2.2493,1,,,,,,,,,,,,,,m,,,,,,,,,,,,,,,80,0,479.4691,481.7193,m,1,2.2493,,[],[],[],[],[],[],[],481.7193,483.7185,483.7186,483.7188,[],[],[],[],[],[],[],,483.7189,486.8135,0.297250935,-0.272883493,0,0,0,space,0,79,79,95,1,1,word,COMEDY,cursive,comedy_c.png,,,3.0723,,,
,,,,32387,001,2025-12-04_01h34.18.110,HW_LDT_1,2024.2.4,Win32,60.97560976,,,,,,,,,,,,,,,,,,,,486.815,487.0142,487.0142,487.5134,,,,,,,,,,,,,,3.0629,1,,,,,,,,,,,,,,z,,,,,,,,,,,,,,,81,0,487.514,490.5778,z,1,3.0629,,[],[],[],[],[],[],[],490.5779,492.5735,492.5736,492.5737,[],[],[],[],[],[],[],,492.5737,492.5746,0.285379569,-0.40409249,0,0,0,,0,80,80,11,1,1,RL,elacodate,print,elacodate_p.png,,,,,,
,,,,32387,001,2025-12-04_01h34.18.110,HW_LDT_1,2024.2.4,Win32,60.97560976,,,,,,,,,,,,,,,,,,,,492.5761,492.7716,492.7716,493.2721,,,,,,,,,,,,,,1.087,0,,,,,,,,,,,,,,z,,,,,,,,,,,,,,,82,0,493.2727,494.3604,m,0,1.087,,[],[],[],[],[],[],[],494.3604,496.3608,496.3609,496.3611,[],[],[],[],[],[],[],,496.3612,496.3613,0.285379569,-0.40409249,0,0,0,,0,81,81,61,1,1,TL,mecidine,cursive,mecidine_c.png,,,,,,
,,,,32387,001,2025-12-04_01h34.18.110,HW_LDT_1,2024.2.4,Win32,60.97560976,,,,,,,,,,,,,,,,,,,,496.3621,496.5559,496.5559,497.0555,,,,,,,,,,,,,,2.0964,1,,,,,,,,,,,,,,z,,,,,,,,,,,,,,,83,0,497.0561,499.1553,z,1,2.0964,,[],[],[],[],[],[],[],499.1553,501.1428,501.1431,501.1432,[],[],[],[],[],[],[],,501.1433,501.144,0.285379569,-0.40409249,0,0,0,,0,82,82,49,1,1,TL,clicinal,cursive,clicinal_c.png,,,,,,
,,,,32387,001,2025-12-04_01h34.18.110,HW_LDT_1,2024.2.4,Win32,60.97560976,,,,,,,,,,,,,,,,,,,,501.1458,501.3397,501.34,501.8431,,,,,,,,,,,,,,1.685,1,,,,,,,,,,,,,,m,,,,,,,,,,,,,,,84,0,501.8436,503.5292,m,1,1.685,,[],[],[],[],[],[],[],503.5293,505.5299,505.5299,505.5301,[],[],[],[],[],[],[],,505.5302,505.5303,0.285379569,-0.40409249,0,0,0,,0,83,83,86,1,1,word,BESIDE,print,beside_p.png,,,,,,
,,,,32387,001,2025-12-04_01h34.18.110,HW_LDT_1,2024.2.4,Win32,60.97560976,,,,,,,,,,,,,,,,,,,,505.5316,505.7299,505.73,506.2246,,,,,,,,,,,,,,0.8764,1,,,,,,,,,,,,,,m,,,,,,,,,,,,,,,85,1,506.2249,507.1056,m,1,0.8764,,[],[],[],[],[],[],[],507.1057,509.1047,509.1047,510.0462,[],[],[],[],[],[],[],z,510.0464,510.0465,0.285379569,-0.40409249,0,0,0,,0,84,84,133,1,1,word,PROVIDE,print,provide_p.png,0.9381,,,,,
,,,,32387,001,2025-12-04_01h34.18.110,HW_LDT_1,2024.2.4,Win32,60.97560976,,,,,,,,,,,,,,,,,,,,510.0478,510.2465,510.2466,510.7435,,,,,,,,,,,,,,0.7833,1,,,,,,,,,,,,,,m,,,,,,,,,,,,,,,86,0,510.7439,511.5278,m,1,0.7833,,[],[],[],[],[],[],[],511.528,513.5297,513.5298,513.53,[],[],[],[],[],[],[],,513.5301,513.5302,0.285379569,-0.40409249,0,0,0,,0,85,85,144,1,1,word,RESIDENT,print,resident_p.png,,,,,,
,,,,32387,001,2025-12-04_01h34.18.110,HW_LDT_1,2024.2.4,Win32,60.97560976,,,,,,,,,,,,,,,,,,,,513.5317,513.73,513.73,514.2296,,,,,,,,,,,,,,0.7787,1,,,,,,,,,,,,,,z,,,,,,,,,,,,,,,87,0,514.2303,515.0142,z,1,0.7787,,[],[],[],[],[],[],[],515.0142,517.0141,517.0142,517.0148,[],[],[],[],[],[],[],,517.0149,517.015,0.285379569,-0.40409249,0,0,0,,0,86,86,12,1,1,RL,ebiwent,print,ebiwent_p.png,,,,,,
,,,,32387,001,2025-12-04_01h34.18.110,HW_LDT_1,2024.2.4,Win32,60.97560976,,,,,,,,,,,,,,,,,,,,517.0163,517.213,517.2131,517.7136,,,,,,,,,,,,,,1.3217,1,,,,,,,,,,,,,,z,,,,,,,,,,,,,,,88,0,517.7141,519.0393,z,1,1.3217,,[],[],[],[],[],[],[],519.0394,521.0346,521.0347,521.0351,[],[],[],[],[],[],[],,521.0352,521.0352,0.285379569,-0.40409249,0,0,0,,0,87,87,71,1,1,TL,regilion,cursive,regilion_c.png,,,,,,
,,,,32387,001,2025-12-04_01h34.18.110,HW_LDT_1,2024.2.4,Win32,60.97560976,,,,,,,,,,,,,,,,,,,,521.0362,521.2344,521.2344,521.7348,,,,,,,,,,,,,,1.5829,1,,,,,,,,,,,,,,z,,,,,,,,,,,,,,,89,0,521.7351,523.3187,z,1,1.5829,,[],[],[],[],[],[],[],523.3187,525.3175,525.3176,525.3177,[],[],[],[],[],[],[],,525.3177,525.3178,0.285379569,-0.40409249,0,0,0,,0,88,88,43,1,1,TL,bedise,print,bedise_p.png,,,,,,
,,,,32387,001,2025-12-04_01h34.18.110,HW_LDT_1,2024.2.4,Win32,60.97560976,,,,,,,,,,,,,,,,,,,,525.3185,525.5183,525.5184,526.0162,,,,,,,,,,,,,,3.6847,1,,,,,,,,,,,,,,z,,,,,,,,,,,,,,,90,0,526.0165,529.7025,z,1,3.6847,,[],[],[],[],[],[],[],529.7025,531.7018,531.7019,531.702,[],[],[],[],[],[],[],,531.702,531.7021,0.285379569,-0.40409249,0,0,0,,0,89,89,19,1,1,RL,monebate,print,monebate_p.png,,,,,,
,,,,32387,001,2025-12-04_01h34.18.110,HW_LDT_1,2024.2.4,Win32,60.97560976,,,,,,,,,,,,,,,,,,,,531.7027,531.8963,531.8964,532.3962,,,,,,,,,,,,,,0.7476,1,,,,,,,,,,,,,,z,,,,,,,,,,,,,,,91,0,532.3966,533.1473,z,1,0.7476,,[],[],[],[],[],[],[],533.1474,535.1468,535.1469,535.1471,[],[],[],[],[],[],[],,535.1472,535.1473,0.285379569,-0.40409249,0,0,0,,0,90,90,60,1,1,TL,manire,print,manire_p.png,,,,,,
,,,,32387,001,2025-12-04_01h34.18.110,HW_LDT_1,2024.2.4,Win32,60.97560976,,,,,,,,,,,,,,,,,,,,535.1484,535.3467,535.3468,535.8474,,,,,,,,,,,,,,1.0025,1,,,,,,,,,,,,,,m,,,,,,,,,,,,,,,92,1,535.8486,536.8543,m,1,1.0025,,[],[],[],[],[],[],[],536.8544,538.8543,538.8543,540.138,[],[],[],[],[],[],[],z,540.1381,540.1382,0.285379569,-0.40409249,0,0,0,,0,91,91,82,1,1,word,AMATEUR,print,amateur_p.png,1.2797,,,,,
,,,,32387,001,2025-12-04_01h34.18.110,HW_LDT_1,2024.2.4,Win32,60.97560976,,,,,,,,,,,,,,,,,,,,540.1397,540.3382,540.3382,540.8355,,,,,,,,,,,,,,1.3305,1,,,,,,,,,,,,,,z,,,,,,,,,,,,,,,93,0,540.836,542.1672,z,1,1.3305,,[],[],[],[],[],[],[],542.1673,544.1676,544.1677,544.1678,[],[],[],[],[],[],[],,544.1678,544.1678,0.285379569,-0.40409249,0,0,0,,0,92,92,45,1,1,TL,cacapity,print,cacapity_p.png,,,,,,
,,,,32387,001,2025-12-04_01h34.18.110,HW_LDT_1,2024.2.4,Win32,60.97560976,,,,,,,,,,,,,,,,,,,,544.1685,544.3676,544.3676,544.8671,,,,,,,,,,,,,,1.2505,1,,,,,,,,,,,,,,m,,,,,,,,,,,,,,,94,0,544.8679,546.1213,m,1,1.2505,,[],[],[],[],[],[],[],546.1214,548.121,548.1211,548.1213,[],[],[],[],[],[],[],,548.1213,548.1215,0.285379569,-0.40409249,0,0,0,,0,93,93,157,1,1,word,VALIDITY,cursive,validity_c.png,,,,,,
,,,,32387,001,2025-12-04_01h34.18.110,HW_LDT_1,2024.2.4,Win32,60.97560976,,,,,,,,,,,,,,,,,,,,548.1234,548.3209,548.3209,548.8209,,,,,,,,,,,,,,1.2631,1,,,,,,,,,,,,,,z,,,,,,,,,,,,,,,95,0,548.8216,550.0886,z,1,1.2631,,[],[],[],[],[],[],[],550.0887,552.0884,552.0885,552.0887,[],[],[],[],[],[],[],,552.0888,552.0889,0.285379569,-0.40409249,0,0,0,,0,94,94,4,1,1,RL,carminal,print,carminal_p.png,,,,,,
,,,,32387,001,2025-12-04_01h34.18.110,HW_LDT_1,2024.2.4,Win32,60.97560976,,,,,,,,,,,,,,,,,,,,552.0907,552.2885,552.2885,552.7853,,,,,,,,,,,,,,0.9396,1,,,,,,,,,,,,,,m,,,,,,,,,,,,,,,96,0,552.7859,553.7266,m,1,0.9396,,[],[],[],[],[],[],[],553.7267,555.7245,555.7245,555.7246,[],[],[],[],[],[],[],,555.7246,555.7247,0.285379569,-0.40409249,0,0,0,,0,95,95,148,1,1,word,SALINE,print,saline_p.png,,,,,,
,,,,32387,001,2025-12-04_01h34.18.110,HW_LDT_1,2024.2.4,Win32,60.97560976,,,,,,,,,,,,,,,,,,,,555.7254,555.9255,555.9256,556.4186,,,,,,,,,,,,,,0.6509,1,,,,,,,,,,,,,,m,,,,,,,,,,,,,,,97,0,556.4189,557.0708,m,1,0.6509,,[],[],[],[],[],[],[],557.0708,559.0689,559.0689,559.069,[],[],[],[],[],[],[],,559.069,559.069,0.285379569,-0.40409249,0,0,0,,0,96,96,139,1,1,word,REGULAR,print,regular_p.png,,,,,,
,,,,32387,001,2025-12-04_01h34.18.110,HW_LDT_1,2024.2.4,Win32,60.97560976,,,,,,,,,,,,,,,,,,,,559.0699,559.2637,559.2637,559.7644,,,,,,,,,,,,,,1.6094,1,,,,,,,,,,,,,,z,,,,,,,,,,,,,,,98,0,559.7651,561.38,z,1,1.6094,,[],[],[],[],[],[],[],561.38,563.3805,563.3805,563.3808,[],[],[],[],[],[],[],,563.3809,563.381,0.285379569,-0.40409249,0,0,0,,0,97,97,22,1,1,RL,patisic,print,patisic_p.png,,,,,,
,,,,32387,001,2025-12-04_01h34.18.110,HW_LDT_1,2024.2.4,Win32,60.97560976,,,,,,,,,,,,,,,,,,,,563.383,563.5751,563.5752,564.0798,,,,,,,,,,,,,,0.6278,1,,,,,,,,,,,,,,m,,,,,,,,,,,,,,,99,0,564.0804,564.7139,m,1,0.6278,,[],[],[],[],[],[],[],564.7141,566.7127,566.7127,566.7129,[],[],[],[],[],[],[],,566.7129,566.713,0.285379569,-0.40409249,0,0,0,,0,98,98,158,1,1,word,VELOCITY,print,velocity_p.png,,,,,,
,,,,32387,001,2025-12-04_01h34.18.110,HW_LDT_1,2024.2.4,Win32,60.97560976,,,,,,,,,,,,,,,,,,,,566.7149,566.9134,566.9134,567.4128,,,,,,,,,,,,,,0.812,0,,,,,,,,,,,,,,z,,,,,,,,,,,,,,,100,0,567.4136,568.2294,m,0,0.812,,[],[],[],[],[],[],[],568.2294,570.2261,570.2261,570.2265,[],[],[],[],[],[],[],,570.2265,570.2266,0.285379569,-0.40409249,0,0,0,,0,99,99,56,1,1,TL,grafetul,print,grafetul_p.png,,,,,,
,,,,32387,001,2025-12-04_01h34.18.110,HW_LDT_1,2024.2.4,Win32,60.97560976,,,,,,,,,,,,,,,,,,,,570.2279,570.4214,570.4215,570.9221,,,,,,,,,,,,,,1.336,1,,,,,,,,,,,,,,m,,,,,,,,,,,,,,,101,1,570.923,572.2603,m,1,1.336,,[],[],[],[],[],[],[],572.2604,574.2603,574.2604,575.3347,[],[],[],[],[],[],[],z,575.3349,575.3353,0.285379569,-0.40409249,0,0,0,,0,100,100,135,1,1,word,QUALITY,cursive,quality_c.png,1.0738,,,,,
,,,,32387,001,2025-12-04_01h34.18.110,HW_LDT_1,2024.2.4,Win32,60.97560976,,,,,,,,,,,,,,,,,,,,575.3363,575.5375,575.5375,576.0335,,,,,,,,,,,,,,0.8492,1,,,,,,,,,,,,,,m,,,,,,,,,,,,,,,102,0,576.0341,576.884,m,1,0.8492,,[],[],[],[],[],[],[],576.8841,578.8842,578.8843,578.8845,[],[],[],[],[],[],[],,578.8846,578.8846,0.285379569,-0.40409249,0,0,0,,0,101,101,137,1,1,word,RAPIDLY,cursive,rapidly_c.png,,,,,,
,,,,32387,001,2025-12-04_01h34.18.110,HW_LDT_1,2024.2.4,Win32,60.97560976,,,,,,,,,,,,,,,,,,,,578.8853,579.0844,579.0844,579.5847,,,,,,,,,,,,,,0.8407,1,,,,,,,,,,,,,,z,,,,,,,,,,,,,,,103,1,579.5854,580.4269,z,1,0.8407,,[],[],[],[],[],[],[],580.4271,582.4262,582.4263,583.71,[],[],[],[],[],[],[],z,583.71,583.7102,0.285379569,-0.40409249,0,0,0,,0,102,102,55,1,1,TL,fornute,print,fornute_p.png,1.283,,,,,
,,,,32387,001,2025-12-04_01h34.18.110,HW_LDT_1,2024.2.4,Win32,60.97560976,,,,,,,,,,,,,,,,,,,,583.7111,583.9116,583.9122,584.4097,,,,,,,,,,,,,,0.9814,1,,,,,,,,,,,,,,z,,,,,,,,,,,,,,,104,0,584.4102,585.3923,z,1,0.9814,,[],[],[],[],[],[],[],585.3924,587.3875,587.3875,587.3878,[],[],[],[],[],[],[],,587.388,587.3881,0.285379569,-0.40409249,0,0,0,,0,103,103,54,1,1,TL,distupe,cursive,distupe_c.png,,,,,,
,,,,32387,001,2025-12-04_01h34.18.110,HW_LDT_1,2024.2.4,Win32,60.97560976,,,,,,,,,,,,,,,,,,,,587.3893,587.5839,587.584,588.084,,,,,,,,,,,,,,1.7319,1,,,,,,,,,,,,,,m,,,,,,,,,,,,,,,105,0,588.0842,589.8166,m,1,1.7319,,[],[],[],[],[],[],[],589.8167,591.8182,591.8183,591.8183,[],[],[],[],[],[],[],,591.8183,591.8185,0.285379569,-0.40409249,0,0,0,,0,104,104,103,1,1,word,DISPUTE,cursive,dispute_c.png,,,,,,
,,,,32387,001,2025-12-04_01h34.18.110,HW_LDT_1,2024.2.4,Win32,60.97560976,,,,,,,,,,,,,,,,,,,,591.8191,592.0133,592.0133,592.513,,,,,,,,,,,,,,0.7446,1,,,,,,,,,,,,,,z,,,,,,,,,,,,,,,106,0,592.5135,593.2632,z,1,0.7446,,[],[],[],[],[],[],[],593.2632,595.2589,595.2589,595.259,[],[],[],[],[],[],[],,595.259,595.259,0.285379569,-0.40409249,0,0,0,,0,105,105,42,1,1,TL,befenit,print,befenit_p.png,,,,,,
,,,,32387,001,2025-12-04_01h34.18.110,HW_LDT_1,2024.2.4,Win32,60.97560976,,,,,,,,,,,,,,,,,,,,595.26,595.4547,595.4547,595.9605,,,,,,,,,,,,,,0.7947,1,,,,,,,,,,,,,,m,,,,,,,,,,,,,,,107,0,595.9609,596.7566,m,1,0.7947,,[],[],[],[],[],[],[],596.7567,598.7508,598.7508,598.751,[],[],[],[],[],[],[],,598.751,598.7511,0.285379569,-0.40409249,0,0,0,,0,106,106,116,1,1,word,MARGINAL,print,marginal_p.png,,,,,,
,,,,32387,001,2025-12-04_01h34.18.110,HW_LDT_1,2024.2.4,Win32,60.97560976,,,,,,,,,,,,,,,,,,,,598.7524,598.9461,598.9461,599.4517,,,,,,,,,,,,,,0.8232,1,,,,,,,,,,,,,,z,,,,,,,,,,,,,,,108,0,599.4522,600.276,z,1,0.8232,,[],[],[],[],[],[],[],600.2762,602.2764,602.2764,602.2766,[],[],[],[],[],[],[],,602.2766,602.2767,0.285379569,-0.40409249,0,0,0,,0,107,107,6,1,1,RL,crisival,print,crisival_p.png,,,,,,
,,,,32387,001,2025-12-04_01h34.18.110,HW_LDT_1,2024.2.4,Win32,60.97560976,,,,,,,,,,,,,,,,,,,,602.2776,602.4712,602.4712,602.9766,,,,,,,,,,,,,,0.9979,1,,,,,,,,,,,,,,m,,,,,,,,,,,,,,,109,0,602.9773,603.9759,m,1,0.9979,,[],[],[],[],[],[],[],603.9759,605.9754,605.9756,605.9758,[],[],[],[],[],[],[],,605.9758,605.9759,0.285379569,-0.40409249,0,0,0,,0,108,108,134,1,1,word,QUALIFY,cursive,qualify_c.png,,,,,,
,,,,32387,001,2025-12-04_01h34.18.110,HW_LDT_1,2024.2.4,Win32,60.97560976,,,,,,,,,,,,,,,,,,,,605.9769,606.1713,606.1713,606.6712,,,,,,,,,,,,,,0.6972,1,,,,,,,,,,,,,,m,,,,,,,,,,,,,,,110,0,606.6719,607.3705,m,1,0.6972,,[],[],[],[],[],[],[],607.3706,609.3708,609.3708,609.371,[],[],[],[],[],[],[],,609.371,609.3712,0.285379569,-0.40409249,0,0,0,,0,109,109,114,1,1,word,LOCATE,print,locate_p.png,,,,,,
,,,,32387,001,2025-12-04_01h34.18.110,HW_LDT_1,2024.2.4,Win32,60.97560976,,,,,,,,,,,,,,,,,,,,609.3727,609.5682,609.5682,610.0686,,,,,,,,,,,,,,0.7309,1,,,,,,,,,,,,,,m,,,,,,,,,,,,,,,111,0,610.0693,610.8041,m,1,0.7309,,[],[],[],[],[],[],[],610.8042,612.8053,612.8054,612.8059,[],[],[],[],[],[],[],,612.806,612.8061,0.285379569,-0.40409249,0,0,0,,0,110,110,83,1,1,word,ANIMAL,print,animal_p.png,,,,,,
,,,,32387,001,2025-12-04_01h34.18.110,HW_LDT_1,2024.2.4,Win32,60.97560976,,,,,,,,,,,,,,,,,,,,612.809,613.0046,613.0046,613.5044,,,,,,,,,,,,,,0.7379,1,,,,,,,,,,,,,,z,,,,,,,,,,,,,,,112,0,613.505,614.2441,z,1,0.7379,,[],[],[],[],[],[],[],614.2442,616.2424,616.2424,616.2425,[],[],[],[],[],[],[],,616.2425,616.2426,0.285379569,-0.40409249,0,0,0,,0,111,111,62,1,1,TL,mitilary,print,mitilary_p.png,,,,,,
,,,,32387,001,2025-12-04_01h34.18.110,HW_LDT_1,2024.2.4,Win32,60.97560976,,,,,,,,,,,,,,,,,,,,616.2433,616.4396,616.4397,616.942,,,,,,,,,,,,,,1.5904,1,,,,,,,,,,,,,,z,,,,,,,,,,,,,,,113,0,616.9425,618.5337,z,1,1.5904,,[],[],[],[],[],[],[],618.5337,620.5292,620.5292,620.5294,[],[],[],[],[],[],[],,620.5295,620.5295,0.285379569,-0.40409249,0,0,0,,0,112,112,63,1,1,TL,molibe,cursive,molibe_c.png,,,,,,
,,,,32387,001,2025-12-04_01h34.18.110,HW_LDT_1,2024.2.4,Win32,60.97560976,,,,,,,,,,,,,,,,,,,,620.531,620.7288,620.7289,621.2295,,,,,,,,,,,,,,0.7214,1,,,,,,,,,,,,,,z,,,,,,,,,,,,,,,114,0,621.2299,621.954,z,1,0.7214,,[],[],[],[],[],[],[],621.9542,623.9539,623.954,623.9543,[],[],[],[],[],[],[],,623.9543,623.9543,0.285379569,-0.40409249,0,0,0,,0,113,113,46,1,1,TL,catipal,print,catipal_p.png,,,,,,
,,,,32387,001,2025-12-04_01h34.18.110,HW_LDT_1,2024.2.4,Win32,60.97560976,,,,,,,,,,,,,,,,,,,,623.9563,624.1509,624.1511,624.6507,,,,,,,,,,,,,,0.9378,1,,,,,,,,,,,,,,m,,,,,,,,,,,,,,,115,0,624.6514,625.5902,m,1,0.9378,,[],[],[],[],[],[],[],625.5903,627.5925,627.5925,627.5931,[],[],[],[],[],[],[],,627.5932,627.5933,0.283505155,-0.381599519,0,0,0,,0,114,114,132,1,1,word,PROPOSAL,cursive,proposal_c.png,,,,,,
,,,,32387,001,2025-12-04_01h34.18.110,HW_LDT_1,2024.2.4,Win32,60.97560976,,,,,,,,,,,,,,,,,,,,627.5941,627.7957,627.7957,628.2928,,,,,,,,,,,,,,0.5907,1,,,,,,,,,,,,,,m,,,,,,,,,,,,,,,116,0,628.2931,628.8843,m,1,0.5907,,[],[],[],[],[],[],[],628.8844,630.8794,630.8796,630.8798,[],[],[],[],[],[],[],,630.8799,630.8799,0.284754802,-0.389097176,0,0,0,,0,115,115,98,1,1,word,CRIMINAL,print,criminal_p.png,,,,,,
,,,,32387,001,2025-12-04_01h34.18.110,HW_LDT_1,2024.2.4,Win32,60.97560976,,,,,,,,,,,,,,,,,,,,630.8822,631.0793,631.0793,631.5776,,,,,,,,,,,,,,0.6644,1,,,,,,,,,,,,,,z,,,,,,,,,,,,,,,117,0,631.5788,632.2442,z,1,0.6644,,[],[],[],[],[],[],[],632.2442,634.239,634.2391,634.2394,[],[],[],[],[],[],[],,634.2395,634.2395,0.284754802,-0.389097176,0,0,0,,0,116,116,24,1,1,RL,probice,print,probice_p.png,,,,,,
,,,,32387,001,2025-12-04_01h34.18.110,HW_LDT_1,2024.2.4,Win32,60.97560976,,,,,,,,,,,,,,,,,,,,634.2417,634.4341,634.4342,634.938,,,,,,,,,,,,,,1.4197,1,,,,,,,,,,,,,,m,,,,,,,,,,,,,,,118,0,634.9388,636.3594,m,1,1.4197,,[],[],[],[],[],[],[],636.3597,638.3544,638.3545,638.3545,[],[],[],[],[],[],[],,638.3546,638.3547,0.284130036,-0.386597938,0,0,0,,0,117,117,122,1,1,word,MOBILE,cursive,mobile_c.png,,,,,,
,,,,32387,001,2025-12-04_01h34.18.110,HW_LDT_1,2024.2.4,Win32,60.97560976,,,,,,,,,,,,,,,,,,,,638.3574,638.5597,638.5598,639.0541,,,,,,,,,,,,,,0.8538,1,,,,,,,,,,,,,,z,,,,,,,,,,,,,,,119,0,639.0547,639.9091,z,1,0.8538,,[],[],[],[],[],[],[],639.9092,641.9097,641.9098,641.9099,[],[],[],[],[],[],[],,641.9099,641.9101,0.282880388,-0.383473933,0,0,0,,0,118,118,29,1,1,RL,refakive,cursive,refakive_c.png,,,,,,
,,,,32387,001,2025-12-04_01h34.18.110,HW_LDT_1,2024.2.4,Win32,60.97560976,,,,,,,,,,,,,,,,,,,,641.9111,642.1124,642.1125,642.6049,,,,,,,,,,,,,,1.052,1,,,,,,,,,,,,,,m,,,,,,,,,,,,,,,120,0,642.6058,643.6589,m,1,1.052,,[],[],[],[],[],[],[],643.659,645.6584,645.6584,645.6586,[],[],[],[],[],[],[],,645.6586,645.6587,0.282880388,-0.379725105,0,0,0,,0,119,119,130,1,1,word,POLICY,cursive,policy_c.png,,,,,,
,,,,32387,001,2025-12-04_01h34.18.110,HW_LDT_1,2024.2.4,Win32,60.97560976,,,,,,,,,,,,,,,,,,,,645.6597,645.8546,645.8546,646.3533,,,,,,,,,,,,,,2.3537,1,,,,,,,,,,,,,,m,,,,,,,,,,,,,,,121,0,646.3537,648.7129,m,1,2.3537,,[],[],[],[],[],[],[],648.713,650.7119,650.7119,650.7121,[],[],[],[],[],[],[],,650.7121,650.7122,0.282255621,-0.3766011,0,0,0,,0,120,120,155,1,1,word,STRATEGY,cursive,strategy_c.png,,,,,,
,,,,32387,001,2025-12-04_01h34.18.110,HW_LDT_1,2024.2.4,Win32,60.97560976,,,,,,,,,,,,,,,,,,,,650.7133,650.9115,650.9116,651.4121,,,,,,,,,,,,,,1.7244,1,,,,,,,,,,,,,,z,,,,,,,,,,,,,,,122,0,651.4126,653.1464,z,1,1.7244,,[],[],[],[],[],[],[],653.1466,655.1461,655.1463,655.1464,[],[],[],[],[],[],[],,655.1464,655.1466,0.282255621,-0.3766011,0,0,0,,0,121,121,64,1,1,TL,orepator,cursive,orepator_c.png,,,,,,
,,,,32387,001,2025-12-04_01h34.18.110,HW_LDT_1,2024.2.4,Win32,60.97560976,,,,,,,,,,,,,,,,,,,,655.1479,655.3459,655.346,655.8466,,,,,,,,,,,,,,5.7532,1,,,,,,,,,,,,,,z,,,,,,,,,,,,,,,123,0,655.8472,661.6138,z,1,5.7532,,[],[],[],[],[],[],[],661.6139,663.6124,663.6125,663.6128,[],[],[],[],[],[],[],,663.6129,663.6129,0.282255621,-0.3766011,0,0,0,,0,122,122,53,1,1,TL,dentisy,cursive,dentisy_c.png,,,,,,
,,,,32387,001,2025-12-04_01h34.18.110,HW_LDT_1,2024.2.4,Win32,60.97560976,,,,,,,,,,,,,,,,,,,,663.6145,663.8116,663.8116,664.3117,,,,,,,,,,,,,,0.7994,1,,,,,,,,,,,,,,m,,,,,,,,,,,,,,,124,0,664.3121,665.1123,m,1,0.7994,,[],[],[],[],[],[],[],665.1124,667.1129,667.1131,667.1131,[],[],[],[],[],[],[],,667.1132,667.1133,0.281005974,-0.374101862,0,0,0,,0,123,123,106,1,1,word,ELABORATE,print,elaborate_p.png,,,,,,
,,,,32387,001,2025-12-04_01h34.18.110,HW_LDT_1,2024.2.4,Win32,60.97560976,,,,,,,,,,,,,,,,,,,,667.1144,667.313,667.3131,667.8119,,,,,,,,,,,,,,0.6071,1,,,,,,,,,,,,,,m,,,,,,,,,,,,,,,125,0,667.8123,668.447,m,1,0.6071,,[],[],[],[],[],[],[],668.4472,670.4461,670.4462,670.4464,[],[],[],[],[],[],[],,670.4464,670.4465,0.281005974,-0.374101862,0,0,0,,0,124,124,89,1,1,word,CAPACITY,print,capacity_p.png,,,,,,
,,,,32387,001,2025-12-04_01h34.18.110,HW_LDT_1,2024.2.4,Win32,60.97560976,,,,,,,,,,,,,,,,,,,,670.4481,670.646,670.646,671.1469,,,,,,,,,,,,,,1.4717,1,,,,,,,,,,,,,,z,,,,,,,,,,,,,,,126,0,671.1474,672.6462,z,1,1.4717,,[],[],[],[],[],[],[],672.6463,674.6462,674.6462,674.6464,[],[],[],[],[],[],[],,674.6465,674.6466,0.281005974,-0.374101862,0,0,0,,0,125,125,38,1,1,RL,stopave,cursive,stopave_c.png,,,,,,
,,,,32387,001,2025-12-04_01h34.18.110,HW_LDT_1,2024.2.4,Win32,60.97560976,,,,,,,,,,,,,,,,,,,,674.6479,674.8456,674.8456,675.3461,,,,,,,,,,,,,,1.1958,1,,,,,,,,,,,,,,z,,,,,,,,,,,,,,,127,1,675.3467,676.5464,z,1,1.1958,,[],[],[],[],[],[],[],676.5465,678.5462,678.5463,679.6461,[],[],[],[],[],[],[],z,679.6462,679.6463,0.281005974,-0.374101862,0,0,0,,0,126,126,57,1,1,TL,hetirage,cursive,hetirage_c.png,1.0796,,,,,
,,,,32387,001,2025-12-04_01h34.18.110,HW_LDT_1,2024.2.4,Win32,60.97560976,,,,,,,,,,,,,,,,,,,,679.6477,679.8458,679.8459,680.3463,,,,,,,,,,,,,,0.8948,1,,,,,,,,,,,,,,z,,,,,,,,,,,,,,,128,1,680.3468,681.2456,z,1,0.8948,,[],[],[],[],[],[],[],681.2457,683.2463,683.2464,684.6461,[],[],[],[],[],[],[],z,684.6461,684.6463,0.281005974,-0.374101862,0,0,0,,0,127,127,31,1,1,RL,reconal,cursive,reconal_c.png,1.3949,,,,,
,,,,32387,001,2025-12-04_01h34.18.110,HW_LDT_1,2024.2.4,Win32,60.97560976,,,,,,,,,,,,,,,,,,,,684.6474,684.8458,684.8459,685.3457,,,,,,,,,,,,,,0.7392,1,,,,,,,,,,,,,,m,,,,,,,,,,,,,,,129,0,685.3463,686.1123,m,1,0.7392,,[],[],[],[],[],[],[],686.1125,688.1114,688.1115,688.1118,[],[],[],[],[],[],[],,688.1119,688.1121,0.281005974,-0.374101862,0,0,0,,0,128,128,90,1,1,word,CAPITAL,print,capital_p.png,,,,,,
,,,,32387,001,2025-12-04_01h34.18.110,HW_LDT_1,2024.2.4,Win32,60.97560976,,,,,,,,,,,,,,,,,,,,688.1132,688.3115,688.3116,688.8132,,,,,,,,,,,,,,0.9443,1,,,,,,,,,,,,,,m,,,,,,,,,,,,,,,130,0,688.8137,689.7791,m,1,0.9443,,[],[],[],[],[],[],[],689.7792,691.779,691.779,691.7794,[],[],[],[],[],[],[],,691.7795,691.7796,0.281005974,-0.374101862,0,0,0,,0,129,129,145,1,1,word,RESUME,print,resume_p.png,,,,,,
,,,,32387,001,2025-12-04_01h34.18.110,HW_LDT_1,2024.2.4,Win32,60.97560976,,,,,,,,,,,,,,,,,,,,691.7811,691.9782,691.9783,692.4793,,,,,,,,,,,,,,0.7921,1,,,,,,,,,,,,,,z,,,,,,,,,,,,,,,131,0,692.4799,693.2795,z,1,0.7921,,[],[],[],[],[],[],[],693.2796,695.2804,695.2805,695.2808,[],[],[],[],[],[],[],,695.2809,695.2811,0.281005974,-0.374101862,0,0,0,,0,130,130,50,1,1,TL,condiser,cursive,condiser_c.png,,,,,,
,,,,32387,001,2025-12-04_01h34.18.110,HW_LDT_1,2024.2.4,Win32,60.97560976,,,,,,,,,,,,,,,,,,,,695.2832,695.4793,695.4793,695.9792,,,,,,,,,,,,,,0.6605,1,,,,,,,,,,,,,,m,,,,,,,,,,,,,,,132,0,695.9797,696.6456,m,1,0.6605,,[],[],[],[],[],[],[],696.6456,698.646,698.646,698.6463,[],[],[],[],[],[],[],,698.6463,698.6463,0.280381207,-0.372852272,0,0,0,,0,131,131,136,1,1,word,RADICAL,print,radical_p.png,,,,,,
,,,,32387,001,2025-12-04_01h34.18.110,HW_LDT_1,2024.2.4,Win32,60.97560976,,,,,,,,,,,,,,,,,,,,698.6478,698.8458,698.8459,699.3457,,,,,,,,,,,,,,0.8086,1,,,,,,,,,,,,,,m,,,,,,,,,,,,,,,133,0,699.3462,700.1789,m,1,0.8086,,[],[],[],[],[],[],[],700.179,702.1793,702.1793,702.1795,[],[],[],[],[],[],[],,702.1795,702.1796,0.280381207,-0.372852272,0,0,0,,0,132,132,112,1,1,word,LIBERAL,cursive,liberal_c.png,,,,,,
,,,,32387,001,2025-12-04_01h34.18.110,HW_LDT_1,2024.2.4,Win32,60.97560976,,,,,,,,,,,,,,,,,,,,702.1807,702.3796,702.3796,702.8794,,,,,,,,,,,,,,0.6277,1,,,,,,,,,,,,,,m,,,,,,,,,,,,,,,134,0,702.8799,703.5128,m,1,0.6277,,[],[],[],[],[],[],[],703.5129,705.5112,705.5113,705.5114,[],[],[],[],[],[],[],,705.5115,705.5116,0.280381207,-0.372227448,0,0,0,,0,133,133,123,1,1,word,MODERATE,print,moderate_p.png,,,,,,
,,,,32387,001,2025-12-04_01h34.18.110,HW_LDT_1,2024.2.4,Win32,60.97560976,,,,,,,,,,,,,,,,,,,,705.5129,705.7113,705.7113,706.2111,,,,,,,,,,,,,,0.5423,1,,,,,,,,,,,,,,m,,,,,,,,,,,,,,,135,0,706.2117,706.7781,m,1,0.5423,,[],[],[],[],[],[],[],706.7781,708.7786,708.7786,708.7788,[],[],[],[],[],[],[],,708.7789,708.779,0.277257145,-0.365354615,0,0,0,,0,134,134,159,1,1,word,VETERAN,print,veteran_p.png,,,,,,
,,,,32387,001,2025-12-04_01h34.18.110,HW_LDT_1,2024.2.4,Win32,60.97560976,,,,,,,,,,,,,,,,,,,,708.78,708.9792,708.9792,709.4794,,,,,,,,,,,,,,0.9048,1,,,,,,,,,,,,,,z,,,,,,,,,,,,,,,136,0,709.4799,710.4125,z,1,0.9048,,[],[],[],[],[],[],[],710.4126,712.4112,712.4112,712.4115,[],[],[],[],[],[],[],,712.4115,712.4116,0.277257145,-0.36847862,0,0,0,,0,135,135,58,1,1,TL,incidate,cursive,incidate_c.png,,,,,,
,,,,32387,001,2025-12-04_01h34.18.110,HW_LDT_1,2024.2.4,Win32,60.97560976,,,,,,,,,,,,,,,,,,,,712.4126,712.6119,712.6119,713.1111,,,,,,,,,,,,,,0.8546,1,,,,,,,,,,,,,,m,,,,,,,,,,,,,,,137,0,713.1116,713.9794,m,1,0.8546,,[],[],[],[],[],[],[],713.9796,715.9789,715.979,715.9792,[],[],[],[],[],[],[],,715.9792,715.9793,0.277257145,-0.36847862,0,0,0,,0,136,136,152,1,1,word,SPECIMEN,cursive,specimen_c.png,,,,,,
,,,,32387,001,2025-12-04_01h34.18.110,HW_LDT_1,2024.2.4,Win32,60.97560976,,,,,,,,,,,,,,,,,,,,715.9803,716.179,716.179,716.6778,,,,,,,,,,,,,,0.7272,1,,,,,,,,,,,,,,z,,,,,,,,,,,,,,,138,0,716.6783,717.4124,z,1,0.7272,,[],[],[],[],[],[],[],717.4124,719.4126,719.4126,719.4128,[],[],[],[],[],[],[],,719.4128,719.4129,0.277257145,-0.36847862,0,0,0,,0,137,137,10,1,1,RL,efibor,cursive,efibor_c.png,,,,,,
,,,,32387,001,2025-12-04_01h34.18.110,HW_LDT_1,2024.2.4,Win32,60.97560976,,,,,,,,,,,,,,,,,,,,719.4141,719.6126,719.6127,720.1137,,,,,,,,,,,,,,2.7039,1,,,,,,,,,,,,,,z,,,,,,,,,,,,,,,139,0,720.1142,722.8453,z,1,2.7039,,[],[],[],[],[],[],[],722.8454,724.8461,724.8463,724.8468,[],[],[],[],[],[],[],,724.8469,724.8471,0.277257145,-0.36847862,0,0,0,,0,138,138,25,1,1,RL,quakity,cursive,quakity_c.png,,,,,,
,,,,32387,001,2025-12-04_01h34.18.110,HW_LDT_1,2024.2.4,Win32,60.97560976,,,,,,,,,,,,,,,,,,,,724.8487,725.0458,725.0458,725.5447,,,,,,,,,,,,,,1.2433,1,,,,,,,,,,,,,,z,,,,,,,,,,,,,,,140,1,725.5453,726.8116,z,1,1.2433,,[],[],[],[],[],[],[],726.8117,728.8125,728.8125,729.7447,[],[],[],[],[],[],[],z,729.7448,729.745,0.277257145,-0.36847862,0,0,0,,0,139,139,5,1,1,RL,cobeny,cursive,cobeny_c.png,0.9072,,,,,
,,,,32387,001,2025-12-04_01h34.18.110,HW_LDT_1,2024.2.4,Win32,60.97560976,,,,,,,,,,,,,,,,,,,,729.7462,729.9455,729.9457,730.4457,,,,,,,,,,,,,,1.8216,1,,,,,,,,,,,,,,z,,,,,,,,,,,,,,,141,1,730.4462,732.2781,z,1,1.8216,,[],[],[],[],[],[],[],732.2783,734.2793,734.2794,735.1455,[],[],[],[],[],[],[],z,735.1456,735.1458,0.277257145,-0.36847862,0,0,0,,0,140,140,35,1,1,RL,senvilent,cursive,senvilent_c.png,0.8613,,,,,
,,,,32387,001,2025-12-04_01h34.18.110,HW_LDT_1,2024.2.4,Win32,60.97560976,,,,,,,,,,,,,,,,,,,,735.1469,735.3454,735.3455,735.8453,,,,,,,,,,,,,,0.9399,0,,,,,,,,,,,,,,m,,,,,,,,,,,,,,,142,0,735.8458,736.8111,z,0,0.9399,,[],[],[],[],[],[],[],736.8112,738.8115,738.8116,738.8117,[],[],[],[],[],[],[],,738.8119,738.812,0.277257145,-0.36847862,0,0,0,,0,141,141,105,1,1,word,EDITOR,cursive,editor_c.png,,,,,,
,,,,32387,001,2025-12-04_01h34.18.110,HW_LDT_1,2024.2.4,Win32,60.97560976,,,,,,,,,,,,,,,,,,,,738.8129,739.0125,739.0126,739.5124,,,,,,,,,,,,,,1.6738,0,,,,,,,,,,,,,,z,,,,,,,,,,,,,,,143,0,739.513,741.2118,m,0,1.6738,,[],[],[],[],[],[],[],741.2118,743.212,743.2121,743.2124,[],[],[],[],[],[],[],,743.2125,743.2126,0.272258669,-0.360980963,0,0,0,,0,142,142,16,1,1,RL,marmipal,print,marmipal_p.png,,,,,,
,,,,32387,001,2025-12-04_01h34.18.110,HW_LDT_1,2024.2.4,Win32,60.97560976,,,,,,,,,,,,,,,,,,,,743.214,743.412,743.4121,743.9111,,,,,,,,,,,,,,1.4583,1,,,,,,,,,,,,,,m,,,,,,,,,,,,,,,144,0,743.9116,745.3783,m,1,1.4583,,[],[],[],[],[],[],[],745.3784,747.3778,747.3779,747.3781,[],[],[],[],[],[],[],,747.3781,747.3781,0.271633903,-0.359106548,0,0,0,,0,143,143,138,1,1,word,REFUSAL,print,refusal_p.png,,,,,,
,,,,32387,001,2025-12-04_01h34.18.110,HW_LDT_1,2024.2.4,Win32,60.97560976,,,,,,,,,,,,,,,,,,,,747.3792,747.5789,747.5789,748.0787,,,,,,,,,,,,,,1.4913,1,,,,,,,,,,,,,,m,,,,,,,,,,,,,,,145,0,748.0794,749.5784,m,1,1.4913,,[],[],[],[],[],[],[],749.5785,751.5788,751.5789,751.5791,[],[],[],[],[],[],[],,751.5791,751.5792,0.270384255,-0.357232134,0,0,0,,0,144,144,150,1,1,word,SENTIMENT,cursive,sentiment_c.png,,,,,,
,,,,32387,001,2025-12-04_01h34.18.110,HW_LDT_1,2024.2.4,Win32,60.97560976,,,,,,,,,,,,,,,,,,,,751.5804,751.7788,751.7789,752.2788,,,,,,,,,,,,,,1.1271,1,,,,,,,,,,,,,,m,,,,,,,,,,,,,,,146,0,752.2793,753.4144,m,1,1.1271,,[],[],[],[],[],[],[],753.4144,755.4122,755.4122,755.4124,[],[],[],[],[],[],[],,755.4125,755.4126,0.270384255,-0.357232134,0,0,0,,0,145,145,154,1,1,word,STORAGE,cursive,storage_c.png,,,,,,
,,,,32387,001,2025-12-04_01h34.18.110,HW_LDT_1,2024.2.4,Win32,60.97560976,,,,,,,,,,,,,,,,,,,,755.4137,755.6119,755.612,756.1121,,,,,,,,,,,,,,0.6948,1,,,,,,,,,,,,,,z,,,,,,,,,,,,,,,147,0,756.1126,756.8107,z,1,0.6948,,[],[],[],[],[],[],[],756.8109,758.8109,758.8109,758.8111,[],[],[],[],[],[],[],,758.8111,758.8113,0.270384255,-0.357232134,0,0,0,,0,146,146,78,1,1,TL,vecolity,print,vecolity_p.png,,,,,,
,,,,32387,001,2025-12-04_01h34.18.110,HW_LDT_1,2024.2.4,Win32,60.97560976,,,,,,,,,,,,,,,,,,,,758.8124,759.0109,759.0111,759.5118,,,,,,,,,,,,,,0.881,1,,,,,,,,,,,,,,z,,,,,,,,,,,,,,,148,0,759.5124,760.4118,z,1,0.881,,[],[],[],[],[],[],[],760.4119,762.412,762.412,762.4123,[],[],[],[],[],[],[],,762.4123,762.4124,0.270384255,-0.357232134,0,0,0,,0,147,147,30,1,1,RL,relone,print,relone_p.png,,,,,,
,,,,32387,001,2025-12-04_01h34.18.110,HW_LDT_1,2024.2.4,Win32,60.97560976,,,,,,,,,,,,,,,,,,,,762.4137,762.6107,762.6107,763.112,,,,,,,,,,,,,,0.7923,1,,,,,,,,,,,,,,m,,,,,,,,,,,,,,,149,0,763.1126,763.9122,m,1,0.7923,,[],[],[],[],[],[],[],763.9123,765.9107,765.9107,765.911,[],[],[],[],[],[],[],,765.911,765.9111,0.270384255,-0.357232134,0,0,0,,0,148,148,97,1,1,word,COVERAGE,print,coverage_p.png,,,,,,
,,,,32387,001,2025-12-04_01h34.18.110,HW_LDT_1,2024.2.4,Win32,60.97560976,,,,,,,,,,,,,,,,,,,,765.9126,766.1107,766.1107,766.611,,,,,,,,,,,,,,0.7304,1,,,,,,,,,,,,,,z,,,,,,,,,,,,,,,150,0,766.6115,767.3452,z,1,0.7304,,[],[],[],[],[],[],[],767.3453,769.3449,769.345,769.3451,[],[],[],[],[],[],[],,769.3452,769.3454,0.270384255,-0.357232134,0,0,0,,0,149,149,52,1,1,TL,decilate,cursive,decilate_c.png,,,,,,
,,,,32387,001,2025-12-04_01h34.18.110,HW_LDT_1,2024.2.4,Win32,60.97560976,,,,,,,,,,,,,,,,,,,,769.3466,769.5452,769.5452,770.045,,,,,,,,,,,,,,0.7077,1,,,,,,,,,,,,,,z,,,,,,,,,,,,,,,151,0,770.0455,770.7785,z,1,0.7077,,[],[],[],[],[],[],[],770.7786,772.7775,772.7776,772.7778,[],[],[],[],[],[],[],,772.7778,772.7779,0.270384255,-0.357232134,0,0,0,,0,150,150,2,1,1,RL,asiral,print,asiral_p.png,,,,,,
,,,,32387,001,2025-12-04_01h34.18.110,HW_LDT_1,2024.2.4,Win32,60.97560976,,,,,,,,,,,,,,,,,,,,772.7791,772.9783,772.9784,773.4789,,,,,,,,,,,,,,1.0653,1,,,,,,,,,,,,,,m,,,,,,,,,,,,,,,152,0,773.4794,774.5456,m,1,1.0653,,[],[],[],[],[],[],[],774.5457,776.5439,776.5439,776.5441,[],[],[],[],[],[],[],,776.5441,776.5443,0.270384255,-0.357232134,0,0,0,,0,151,151,113,1,1,word,LITERAL,print,literal_p.png,,,,,,
,,,,32387,001,2025-12-04_01h34.18.110,HW_LDT_1,2024.2.4,Win32,60.97560976,,,,,,,,,,,,,,,,,,,,776.5456,776.7442,776.7443,777.2451,,,,,,,,,,,,,,0.7515,1,,,,,,,,,,,,,,z,,,,,,,,,,,,,,,153,0,777.2456,778.0121,z,1,0.7515,,[],[],[],[],[],[],[],778.0121,780.012,780.0121,780.0123,[],[],[],[],[],[],[],,780.0123,780.0124,0.270384255,-0.357232134,0,0,0,,0,152,152,15,1,1,RL,losipal,cursive,losipal_c.png,,,,,,
,,,,32387,001,2025-12-04_01h34.18.110,HW_LDT_1,2024.2.4,Win32,60.97560976,,,,,,,,,,,,,,,,,,,,780.0135,780.2117,780.2117,780.7118,,,,,,,,,,,,,,0.5912,1,,,,,,,,,,,,,,m,,,,,,,,,,,,,,,154,0,780.7122,781.3119,m,1,0.5912,,[],[],[],[],[],[],[],781.312,783.3117,783.3117,783.3118,[],[],[],[],[],[],[],,783.3119,783.312,0.270384255,-0.357232134,0,0,0,,0,153,153,85,1,1,word,BENEFIT,print,benefit_p.png,,,,,,
,,,,32387,001,2025-12-04_01h34.18.110,HW_LDT_1,2024.2.4,Win32,60.97560976,,,,,,,,,,,,,,,,,,,,783.3133,783.511,783.5111,784.0129,,,,,,,,,,,,,,2.2069,1,,,,,,,,,,,,,,z,,,,,,,,,,,,,,,155,0,784.0133,786.244,z,1,2.2069,,[],[],[],[],[],[],[],786.244,788.246,788.2461,788.2462,[],[],[],[],[],[],[],,788.2462,788.2464,0.270384255,-0.357232134,0,0,0,,0,154,154,73,1,1,TL,ronamtic,cursive,ronamtic_c.png,,,,,,
,,,,32387,001,2025-12-04_01h34.18.110,HW_LDT_1,2024.2.4,Win32,60.97560976,,,,,,,,,,,,,,,,,,,,788.2476,788.4452,788.4452,788.9448,,,,,,,,,,,,,,1.7149,1,,,,,,,,,,,,,,m,,,,,,,,,,,,,,,156,0,788.9453,790.6782,m,1,1.7149,,[],[],[],[],[],[],[],790.6784,792.6784,792.6784,792.6786,[],[],[],[],[],[],[],,792.6787,792.6788,0.269134722,-0.354732896,0,0,0,,0,155,155,104,1,1,word,DOMINANT,cursive,dominant_c.png,,,,,,
,,,,32387,001,2025-12-04_01h34.18.110,HW_LDT_1,2024.2.4,Win32,60.97560976,,,,,,,,,,,,,,,,,,,,792.68,792.8771,792.8772,793.3785,,,,,,,,,,,,,,0.6845,1,,,,,,,,,,,,,,z,,,,,,,,,,,,,,,157,0,793.379,794.0782,z,1,0.6845,,[],[],[],[],[],[],[],794.0782,796.0772,796.0773,796.0774,[],[],[],[],[],[],[],,796.0774,796.0776,0.269134722,-0.354732896,0,0,0,,0,156,156,41,1,1,TL,bevoled,print,bevoled_p.png,,,,,,
,,,,32387,001,2025-12-04_01h34.18.110,HW_LDT_1,2024.2.4,Win32,60.97560976,,,,,,,,,,,,,,,,,,,,796.0787,796.2783,796.2783,796.7785,,,,,,,,,,,,,,0.8404,1,,,,,,,,,,,,,,z,,,,,,,,,,,,,,,158,0,796.7791,797.645,z,1,0.8404,,[],[],[],[],[],[],[],797.6451,799.6457,799.6458,799.6462,[],[],[],[],[],[],[],,799.6462,799.6464,0.269134722,-0.354732896,0,0,0,,0,157,157,33,1,1,RL,recile,cursive,recile_c.png,,,,,,
,,,,32387,001,2025-12-04_01h34.18.110,HW_LDT_1,2024.2.4,Win32,60.97560976,,,,,,,,,,,,,,,,,,,,799.648,799.8448,799.8449,800.3447,,,,,,,,,,,,,,0.9272,1,,,,,,,,,,,,,,z,,,,,,,,,,,,,,,159,0,800.3452,801.2776,z,1,0.9272,,[],[],[],[],[],[],[],801.2776,803.2783,803.2783,803.2784,[],[],[],[],[],[],[],,803.2784,803.2785,0.269134722,-0.354732896,0,0,0,,0,158,158,65,1,1,TL,orinigal,cursive,orinigal_c.png,,,,,,
,,,,32387,001,2025-12-04_01h34.18.110,HW_LDT_1,2024.2.4,Win32,60.97560976,,,,,,,,,,,,,,,,,,,,803.2802,803.4787,803.4789,803.9781,,,,,,,,,,,,,,1.1531,1,,,,,,,,,,,,,,m,,,,,,,,,,,,,,,160,0,803.9791,805.1449,m,1,1.1531,,[],[],[],[],[],[],[],805.145,807.1455,807.1455,807.1457,[],[],[],[],[],[],[],,807.1457,807.1458,0.269134722,-0.354732896,0,0,0,,0,159,159,99,1,1,word,DEBATE,print,debate_p.png,,,,,,
,,,,32387,001,2025-12-04_01h34.18.110,HW_LDT_1,2024.2.4,Win32,60.97560976,,,,,,,,,,,,,,,,,,,,,,,,,,,,,,,,,,,,,,,,,,,,,,,,,,,,,,,,,,,,,,,,,,,,,,,,,,,,,,,,,,,,,,,,,,,,,,,,,,,,,,,,,,,,,,,,,,,,807.1641,812.1458
