counterbalance_lists.group,counterbalance_lists.remaining,get_list.started,get_list.stopped,participant,session,date,expName,psychopyVersion,OS,frameRate,Instructions.started,Instructions.stopped,key_resp.keys,key_resp.rt,key_resp.duration,instr_done_touch.x,instr_done_touch.y,instr_done_touch.leftButton,instr_done_touch.midButton,instr_done_touch.rightButton,start_instr.thisRepN,start_instr.thisTrialN,start_instr.thisN,start_instr.thisIndex,start_instr.ran,pageN,phase,instruct_text,has_image,instruct_image,showProgress.started,showProgress.stopped,fix.started,fix.stopped,prac.started,prac.stopped,response.keys,response.corr,response.rt,response.duration,touch_resp.x,touch_resp.y,touch_resp.leftButton,touch_resp.midButton,touch_resp.rightButton,touch_resp.time,touch_resp.clicked_name,rt,corr,feedback.started,feedback.stopped,trials.thisRepN,trials.thisTrialN,trials.thisN,trials.thisIndex,trials.ran,TrialID,StimulusType,Condition,PrimeDuration,Prime,Target,corrAns,Instructions_expt.started,Instructions_expt.stopped,key_resp_3.keys,instr_done_touch_3.x,instr_done_touch_3.y,instr_done_touch_3.leftButton,instr_done_touch_3.midButton,instr_done_touch_3.rightButton,instr_done_touch_3.clicked_name,instr_experiment.thisRepN,instr_experiment.thisTrialN,instr_experiment.thisN,instr_experiment.thisIndex,instr_experiment.ran,trialID,flag,maintask.started,maintask.stopped,key_resp_2.keys,key_resp_2.corr,key_resp_2.rt,key_resp_2.duration,targ_click.x,targ_click.y,targ_click.leftButton,targ_click.midButton,targ_click.rightButton,targ_click.time,targ_click.clicked_name,ITI.started,ITI.stopped,probe.started,probe.stopped,click_probe.x,click_probe.y,click_probe.leftButton,click_probe.midButton,click_probe.rightButton,click_probe.time,click_probe.clicked_name,key_resp_probe.keys,Break.started,Break.stopped,break_done_touch.x,break_done_touch.y,break_done_touch.leftButton,break_done_touch.midButton,break_done_touch.rightButton,break_done_keyboard.keys,list1_trials.thisRepN,list1_trials.thisTrialN,list1_trials.thisN,list1_trials.thisIndex,list1_trials.ran,list_id,item_type,string,font,stim_file,key_resp_probe.rt,key_resp_probe.duration,break_done_touch.clicked_name,End.started,End.stopped
list1,,0.4438,0.444,32385,001,2025-12-02_12h31.18.109,HW_LDT_1,2024.2.4,Linux x86_64,59.88023952,,,,,,,,,,,,,,,,,,,,,,,,,,,,,,,,,,,,,,,,,,,,,,,,,,,,,,,,,,,,,,,,,,,,,,,,,,,,,,,,,,,,,,,,,,,,,,,,,,,,,,,,,,,,,,,,,,,,,
,,,,32385,001,2025-12-02_12h31.18.109,HW_LDT_1,2024.2.4,Linux x86_64,59.88023952,0.4834,21.7235,space,21.1607,,0.057772716,-0.447764158,0,0,0,0,0,0,0,1,1,instructions,"INSTRUCTIONS
At the start of each trial, look at the plus sign  (+) in the center of the screen.  This tells you that a trial is about to begin and where to look. Second, the plus sign will disappear and a string of letters will appear. Your task is to determine if the string of letters is a word or not. If the item is a word press the M key (on keyboard)  or touch the word button (phone/tablet).  If the item is not a word,  press the  Z key (on keyboard)  or touch the nonword button (on phone/tablet). The items will be presented for a short time. 
Press the space bar or touch  continue.",0,,,,,,,,,,,,,,,,,,,,,,,,,,,,,,,,,,,,,,,,,,,,,,,,,,,,,,,,,,,,,,,,,,,,,,,,,,,,,,,,,,,,,,,,,,,,,,,,,,
,,,,32385,001,2025-12-02_12h31.18.109,HW_LDT_1,2024.2.4,Linux x86_64,59.88023952,21.7262,25.3226,space,3.5712,,0.057772716,-0.447764158,0,0,0,0,1,1,1,1,2,instructions,"If your device has a keyboard, press the 'Z' key for nonwords and the 'M' key for words.





Press the space bar or touch the button below to continue.",0,keyboard-example.gif,,,,,,,,,,,,,,,,,,,,,,,,,,,,,,,,,,,,,,,,,,,,,,,,,,,,,,,,,,,,,,,,,,,,,,,,,,,,,,,,,,,,,,,,,,,,,,,,,
,,,,32385,001,2025-12-02_12h31.18.109,HW_LDT_1,2024.2.4,Linux x86_64,59.88023952,25.3246,26.9229,space,1.5733,,0.057772716,-0.447764158,0,0,0,0,2,2,2,1,3,instructions,"If you are using a touchscreen only device, use the buttons on the screen. Do not use the mouse.





Press the space bar or touch the button below to continue.",0,touchscreen-example.gif,,,,,,,,,,,,,,,,,,,,,,,,,,,,,,,,,,,,,,,,,,,,,,,,,,,,,,,,,,,,,,,,,,,,,,,,,,,,,,,,,,,,,,,,,,,,,,,,,
,,,,32385,001,2025-12-02_12h31.18.109,HW_LDT_1,2024.2.4,Linux x86_64,59.88023952,26.9273,33.3228,space,6.375,,0.057772716,-0.447764158,0,0,0,0,3,3,3,1,4,instructions,"It is very important that you respond as quickly and accurately as possible, as each letter string will only be on the screen for two seconds. If you do not respond within this time, the message 'Too slow!' will be displayed and the experiment will progress to the next letter string. The first 20 trials will be practice trials and you will receive feedback on your answers. 

Press the space bar or touch the button below to start the practice trials.",0,,,,,,,,,,,,,,,,,,,,,,,,,,,,,,,,,,,,,,,,,,,,,,,,,,,,,,,,,,,,,,,,,,,,,,,,,,,,,,,,,,,,,,,,,,,,,,,,,,
,,,,32385,001,2025-12-02_12h31.18.109,HW_LDT_1,2024.2.4,Linux x86_64,59.88023952,,,,,,,,,,,,,,,,,,,,,33.4119,33.523,33.5237,34.0228,34.0235,37.7233,z,1,3.6655,,[],[],[],[],[],[],[],3.6655,1,37.7244,38.2226,0,0,0,8,1,1009,NW,"ID",33,aslert,ASLERT,z,,,,,,,,,,,,,,,,,,,,,,,,,,,,,,,,,,,,,,,,,,,,,,,,,,,,,,,,,,,,,,,,
,,,,32385,001,2025-12-02_12h31.18.109,HW_LDT_1,2024.2.4,Linux x86_64,59.88023952,,,,,,,,,,,,,,,,,,,,,38.224,38.4222,38.4224,38.9219,38.9232,41.1552,m,1,2.212,,[],[],[],[],[],[],[],2.212,1,41.1553,41.6551,0,1,1,6,1,1007,WORD,UN,16,tropic,ZOMBIE,m,,,,,,,,,,,,,,,,,,,,,,,,,,,,,,,,,,,,,,,,,,,,,,,,,,,,,,,,,,,,,,,,
,,,,32385,001,2025-12-02_12h31.18.109,HW_LDT_1,2024.2.4,Linux x86_64,59.88023952,,,,,,,,,,,,,,,,,,,,,41.6566,41.8552,41.8552,42.3554,42.3573,43.7888,z,1,1.4117,,[],[],[],[],[],[],[],1.4117,1,43.7891,44.2889,0,2,2,12,1,1013,NW,UN,33,adveil,SPRINY,z,,,,,,,,,,,,,,,,,,,,,,,,,,,,,,,,,,,,,,,,,,,,,,,,,,,,,,,,,,,,,,,,
,,,,32385,001,2025-12-02_12h31.18.109,HW_LDT_1,2024.2.4,Linux x86_64,59.88023952,,,,,,,,,,,,,,,,,,,,,44.2921,44.4887,44.4888,44.9882,44.9892,45.7561,z,1,0.7548,,[],[],[],[],[],[],[],0.7548,1,45.7563,46.2553,0,3,3,13,1,1014,NW,UN,33,winfer,ROUPET,z,,,,,,,,,,,,,,,,,,,,,,,,,,,,,,,,,,,,,,,,,,,,,,,,,,,,,,,,,,,,,,,,
,,,,32385,001,2025-12-02_12h31.18.109,HW_LDT_1,2024.2.4,Linux x86_64,59.88023952,,,,,,,,,,,,,,,,,,,,,46.2588,46.4551,46.4553,46.9551,46.9569,47.7392,m,1,0.7675,,[],[],[],[],[],[],[],0.7675,1,47.7395,48.2384,0,4,4,1,1,1002,WORD,"ID",33,adjust,ADJUST,m,,,,,,,,,,,,,,,,,,,,,,,,,,,,,,,,,,,,,,,,,,,,,,,,,,,,,,,,,,,,,,,,
,,,,32385,001,2025-12-02_12h31.18.109,HW_LDT_1,2024.2.4,Linux x86_64,59.88023952,,,,,,,,,,,,,,,,,,,,,48.2411,48.438,48.4381,48.9378,48.9388,49.8217,m,1,0.868,,[],[],[],[],[],[],[],0.868,1,49.8227,50.3218,0,5,5,0,1,1001,WORD,"ID",33,utopia,UTOPIA,m,,,,,,,,,,,,,,,,,,,,,,,,,,,,,,,,,,,,,,,,,,,,,,,,,,,,,,,,,,,,,,,,
,,,,32385,001,2025-12-02_12h31.18.109,HW_LDT_1,2024.2.4,Linux x86_64,59.88023952,,,,,,,,,,,,,,,,,,,,,50.3243,50.5215,50.5216,51.0217,51.0234,51.9215,z,1,0.8824,,[],[],[],[],[],[],[],0.8824,1,51.9218,52.4215,0,6,6,10,1,1011,NW,"ID",16,inlade,INLADE,z,,,,,,,,,,,,,,,,,,,,,,,,,,,,,,,,,,,,,,,,,,,,,,,,,,,,,,,,,,,,,,,,
,,,,32385,001,2025-12-02_12h31.18.109,HW_LDT_1,2024.2.4,Linux x86_64,59.88023952,,,,,,,,,,,,,,,,,,,,,52.4243,52.6213,52.6215,53.1213,53.123,53.9381,m,1,0.7942,,[],[],[],[],[],[],[],0.7942,1,53.9383,54.4377,0,7,7,5,1,1006,WORD,UN,33,frenzy,OBTAIN,m,,,,,,,,,,,,,,,,,,,,,,,,,,,,,,,,,,,,,,,,,,,,,,,,,,,,,,,,,,,,,,,,
,,,,32385,001,2025-12-02_12h31.18.109,HW_LDT_1,2024.2.4,Linux x86_64,59.88023952,,,,,,,,,,,,,,,,,,,,,54.439,54.6378,54.6379,55.138,55.1398,55.9878,z,1,0.8286,,[],[],[],[],[],[],[],0.8286,1,55.9881,56.4881,0,8,8,9,1,1010,NW,"ID",33,fariny,FARINY,z,,,,,,,,,,,,,,,,,,,,,,,,,,,,,,,,,,,,,,,,,,,,,,,,,,,,,,,,,,,,,,,,
,,,,32385,001,2025-12-02_12h31.18.109,HW_LDT_1,2024.2.4,Linux x86_64,59.88023952,,,,,,,,,,,,,,,,,,,,,56.4908,56.6875,56.6875,57.1877,57.1896,58.0879,z,1,0.8795,,[],[],[],[],[],[],[],0.8795,1,58.0882,58.5879,0,9,9,14,1,1015,NW,UN,16,miaber,THRALE,z,,,,,,,,,,,,,,,,,,,,,,,,,,,,,,,,,,,,,,,,,,,,,,,,,,,,,,,,,,,,,,,,
,,,,32385,001,2025-12-02_12h31.18.109,HW_LDT_1,2024.2.4,Linux x86_64,59.88023952,,,,,,,,,,,,,,,,,,,,,58.5906,58.7878,58.7878,59.2873,59.2884,60.0044,m,1,0.7007,,[],[],[],[],[],[],[],0.7007,1,60.0045,60.5045,0,10,10,4,1,1005,WORD,UN,33,abound,SQUEAK,m,,,,,,,,,,,,,,,,,,,,,,,,,,,,,,,,,,,,,,,,,,,,,,,,,,,,,,,,,,,,,,,,
,,,,32385,001,2025-12-02_12h31.18.109,HW_LDT_1,2024.2.4,Linux x86_64,59.88023952,,,,,,,,,,,,,,,,,,,,,60.5071,60.7042,60.7043,61.2043,61.2061,61.7876,m,1,0.5632,,[],[],[],[],[],[],[],0.5632,1,61.7878,62.2881,0,11,11,7,1,1008,WORD,UN,16,hurdle,VOLUME,m,,,,,,,,,,,,,,,,,,,,,,,,,,,,,,,,,,,,,,,,,,,,,,,,,,,,,,,,,,,,,,,,
,,,,32385,001,2025-12-02_12h31.18.109,HW_LDT_1,2024.2.4,Linux x86_64,59.88023952,,,,,,,,,,,,,,,,,,,,,62.291,62.4874,62.4875,62.9878,62.9895,63.605,m,1,0.5981,,[],[],[],[],[],[],[],0.5981,1,63.6052,64.1037,0,12,12,2,1,1003,WORD,"ID",16,almond,ALMOND,m,,,,,,,,,,,,,,,,,,,,,,,,,,,,,,,,,,,,,,,,,,,,,,,,,,,,,,,,,,,,,,,,
,,,,32385,001,2025-12-02_12h31.18.109,HW_LDT_1,2024.2.4,Linux x86_64,59.88023952,,,,,,,,,,,,,,,,,,,,,64.105,64.3041,64.3042,64.8042,64.806,65.5041,m,1,0.6776,,[],[],[],[],[],[],[],0.6776,1,65.5044,66.0037,0,13,13,3,1,1004,WORD,"ID",16,matrix,MATRIX,m,,,,,,,,,,,,,,,,,,,,,,,,,,,,,,,,,,,,,,,,,,,,,,,,,,,,,,,,,,,,,,,,
,,,,32385,001,2025-12-02_12h31.18.109,HW_LDT_1,2024.2.4,Linux x86_64,59.88023952,,,,,,,,,,,,,,,,,,,,,66.005,66.2041,66.2042,66.7036,66.7044,67.5369,z,1,0.8196,,[],[],[],[],[],[],[],0.8196,1,67.5371,68.0376,0,14,14,11,1,1012,NW,"ID",16,rashet,RASHET,z,,,,,,,,,,,,,,,,,,,,,,,,,,,,,,,,,,,,,,,,,,,,,,,,,,,,,,,,,,,,,,,,
,,,,32385,001,2025-12-02_12h31.18.109,HW_LDT_1,2024.2.4,Linux x86_64,59.88023952,,,,,,,,,,,,,,,,,,,,,68.0402,68.2371,68.2372,68.7373,68.7389,69.4374,z,1,0.679,,[],[],[],[],[],[],[],0.679,1,69.4376,69.9372,0,15,15,15,1,1016,NW,UN,16,mushed,WHAISE,z,,,,,,,,,,,,,,,,,,,,,,,,,,,,,,,,,,,,,,,,,,,,,,,,,,,,,,,,,,,,,,,,
,,,,32385,001,2025-12-02_12h31.18.109,HW_LDT_1,2024.2.4,Linux x86_64,59.88023952,,,,,,,,,,,,,,,,1,end_of_practice,"You have completed the practice trials. During the experimental trials, you will not receive feedback. On some trials you will be asked to report whether the item you just saw was in cursive or print. 
Before you begin, please ensure that you are in a comfortable and quiet location and will not be disturbed for about 15 minutes, as we cannot use your data if you do not complete all the trials. 
 When you are ready to start the experimental trials, please press space or touch the button below.",,,,,,,,,,,,,,,,,,,,,,,,,,,,,,,,,,,,69.9492,73.6702,,0.154307922,-0.372411489,1,0,0,,0,0,0,0,1,,,,,,,,,,,,,,,,,,,,,,,,,,,,,,,,,,,,,,,,,,,,,,,,,,
,,,,32385,001,2025-12-02_12h31.18.109,HW_LDT_1,2024.2.4,Linux x86_64,59.88023952,,,,,,,,,,,,,,,,,,,,,73.6849,73.8699,73.8699,74.3701,,,,,,,,,,,,,,1.8416,1,,,,,,,,,,,,,,m,,,,,,,,,,,,,,,1,0,74.3712,76.2216,m,1,1.8416,,[],[],[],[],[],[],[],76.2223,78.2205,78.2211,78.2298,[],[],[],[],[],[],[],,78.2304,78.2377,0.277761618,0.058342417,0,0,0,,0,0,0,122,1,1,word,MOBILE,cursive,mobile_c.png,,,,,
,,,,32385,001,2025-12-02_12h31.18.109,HW_LDT_1,2024.2.4,Linux x86_64,59.88023952,,,,,,,,,,,,,,,,,,,,,78.2404,78.4367,78.4368,78.9367,,,,,,,,,,,,,,1.2256,0,,,,,,,,,,,,,,z,,,,,,,,,,,,,,,2,0,78.9375,80.1702,m,0,1.2256,,[],[],[],[],[],[],[],80.1704,82.17,82.1702,82.1708,[],[],[],[],[],[],[],,82.1709,82.1713,0.277761618,0.058342417,0,0,0,,0,1,1,56,1,1,TL,grafetul,print,grafetul_p.png,,,,,
,,,,32385,001,2025-12-02_12h31.18.109,HW_LDT_1,2024.2.4,Linux x86_64,59.88023952,,,,,,,,,,,,,,,,,,,,,82.1741,82.3698,82.3699,82.8701,,,,,,,,,,,,,,5.8297,1,,,,,,,,,,,,,,m,,,,,,,,,,,,,,,3,0,82.8711,88.7037,m,1,5.8297,,[],[],[],[],[],[],[],88.704,90.7026,90.7027,90.7033,[],[],[],[],[],[],[],,90.7035,90.7039,0.277761618,0.058342417,0,0,0,,0,2,2,105,1,1,word,EDITOR,cursive,editor_c.png,,,,,
,,,,32385,001,2025-12-02_12h31.18.109,HW_LDT_1,2024.2.4,Linux x86_64,59.88023952,,,,,,,,,,,,,,,,,,,,,90.7068,90.9023,90.9023,91.4025,,,,,,,,,,,,,,1.091,1,,,,,,,,,,,,,,m,,,,,,,,,,,,,,,4,0,91.4035,92.5027,m,1,1.091,,[],[],[],[],[],[],[],92.5028,94.5024,94.5025,94.503,[],[],[],[],[],[],[],,94.5032,94.5035,0.277761618,0.058342417,0,0,0,,0,3,3,142,1,1,word,REMOTE,print,remote_p.png,,,,,
,,,,32385,001,2025-12-02_12h31.18.109,HW_LDT_1,2024.2.4,Linux x86_64,59.88023952,,,,,,,,,,,,,,,,,,,,,94.5062,94.7021,94.7021,95.2025,,,,,,,,,,,,,,2.2589,1,,,,,,,,,,,,,,z,,,,,,,,,,,,,,,5,0,95.2036,97.4697,z,1,2.2589,,[],[],[],[],[],[],[],97.4699,99.4697,99.4698,99.4707,[],[],[],[],[],[],[],,99.471,99.4713,0.277761618,0.058342417,0,0,0,,0,4,4,63,1,1,TL,molibe,cursive,molibe_c.png,,,,,
,,,,32385,001,2025-12-02_12h31.18.109,HW_LDT_1,2024.2.4,Linux x86_64,59.88023952,,,,,,,,,,,,,,,,,,,,,99.4736,99.6699,99.6699,100.1693,,,,,,,,,,,,,,5.1588,1,,,,,,,,,,,,,,m,,,,,,,,,,,,,,,6,0,100.1703,105.3359,m,1,5.1588,,[],[],[],[],[],[],[],105.3362,107.3358,107.3359,107.337,[],[],[],[],[],[],[],,107.3372,107.3376,0.277761618,0.058342417,0,0,0,,0,5,5,134,1,1,word,QUALIFY,cursive,qualify_c.png,,,,,
,,,,32385,001,2025-12-02_12h31.18.109,HW_LDT_1,2024.2.4,Linux x86_64,59.88023952,,,,,,,,,,,,,,,,,,,,,107.3403,107.536,107.536,108.0363,,,,,,,,,,,,,,1.676,1,,,,,,,,,,,,,,m,,,,,,,,,,,,,,,7,0,108.0374,109.7192,m,1,1.676,,[],[],[],[],[],[],[],109.7194,111.7178,111.718,111.7182,[],[],[],[],[],[],[],,111.7182,111.7184,0.277761618,0.058342417,0,0,0,,0,6,6,88,1,1,word,CAMERA,cursive,camera_c.png,,,,,
,,,,32385,001,2025-12-02_12h31.18.109,HW_LDT_1,2024.2.4,Linux x86_64,59.88023952,,,,,,,,,,,,,,,,,,,,,111.7196,111.9178,111.9178,112.4177,,,,,,,,,,,,,,4.5589,1,,,,,,,,,,,,,,m,,,,,,,,,,,,,,,8,0,112.4182,116.9852,m,1,4.5589,,[],[],[],[],[],[],[],116.9855,118.9851,118.9851,118.9859,[],[],[],[],[],[],[],,118.9861,118.9863,0.277761618,0.058342417,0,0,0,,0,7,7,103,1,1,word,DISPUTE,cursive,dispute_c.png,,,,,
,,,,32385,001,2025-12-02_12h31.18.109,HW_LDT_1,2024.2.4,Linux x86_64,59.88023952,,,,,,,,,,,,,,,,,,,,,118.9887,119.1849,119.185,119.6849,,,,,,,,,,,,,,4.4627,1,,,,,,,,,,,,,,m,,,,,,,,,,,,,,,9,0,119.686,124.1518,m,1,4.4627,,[],[],[],[],[],[],[],124.152,126.1511,126.1512,126.1514,[],[],[],[],[],[],[],,126.1514,126.1515,0.277761618,0.058342417,0,0,0,,0,8,8,111,1,1,word,INDICATE,cursive,indicate_c.png,,,,,
,,,,32385,001,2025-12-02_12h31.18.109,HW_LDT_1,2024.2.4,Linux x86_64,59.88023952,,,,,,,,,,,,,,,,,,,,,126.1528,126.3512,126.3513,126.8511,,,,,,,,,,,,,,1.214,1,,,,,,,,,,,,,,z,,,,,,,,,,,,,,,10,0,126.8521,128.0681,z,1,1.214,,[],[],[],[],[],[],[],128.0683,130.0676,130.0677,130.0686,[],[],[],[],[],[],[],,130.0687,130.0691,0.277761618,0.058342417,0,0,0,,0,9,9,29,1,1,RL,refakive,cursive,refakive_c.png,,,,,
,,,,32385,001,2025-12-02_12h31.18.109,HW_LDT_1,2024.2.4,Linux x86_64,59.88023952,,,,,,,,,,,,,,,,,,,,,130.0716,130.2676,130.2677,130.767,,,,,,,,,,,,,,0.6954,1,,,,,,,,,,,,,,m,,,,,,,,,,,,,,,11,1,130.7676,131.467,m,1,0.6954,,[],[],[],[],[],[],[],131.4671,133.4671,133.4672,136.9175,[],[],[],[],[],[],[],m,136.9178,136.9183,0.277761618,0.058342417,0,0,0,,0,10,10,120,1,1,word,MILITARY,print,military_p.png,3.4432,,,,
,,,,32385,001,2025-12-02_12h31.18.109,HW_LDT_1,2024.2.4,Linux x86_64,59.88023952,,,,,,,,,,,,,,,,,,,,,136.9207,137.1172,137.1173,137.6173,,,,,,,,,,,,,,3.6604,1,,,,,,,,,,,,,,z,,,,,,,,,,,,,,,12,0,137.6184,141.2829,z,1,3.6604,,[],[],[],[],[],[],[],141.283,143.2827,143.2829,143.2832,[],[],[],[],[],[],[],,143.2832,143.2833,0.277761618,0.058342417,0,0,0,,0,11,11,1,1,1,RL,adnicory,cursive,adnicory_c.png,,,,,
,,,,32385,001,2025-12-02_12h31.18.109,HW_LDT_1,2024.2.4,Linux x86_64,59.88023952,,,,,,,,,,,,,,,,,,,,,143.2845,143.4835,143.4835,143.983,,,,,,,,,,,,,,0.7422,1,,,,,,,,,,,,,,m,,,,,,,,,,,,,,,13,0,143.9835,144.7329,m,1,0.7422,,[],[],[],[],[],[],[],144.7331,146.7333,146.7335,146.7341,[],[],[],[],[],[],[],,146.7344,146.7349,0.277761618,0.058342417,0,0,0,,0,12,12,109,1,1,word,GRATEFUL,print,grateful_p.png,,,,,
,,,,32385,001,2025-12-02_12h31.18.109,HW_LDT_1,2024.2.4,Linux x86_64,59.88023952,,,,,,,,,,,,,,,,,,,,,146.7374,146.9337,146.9338,147.4334,,,,,,,,,,,,,,3.0744,1,,,,,,,,,,,,,,m,,,,,,,,,,,,,,,14,1,147.4347,150.5166,m,1,3.0744,,[],[],[],[],[],[],[],150.5168,152.5164,152.5165,154.0843,[],[],[],[],[],[],[],z,154.0845,154.0848,0.277761618,0.058342417,0,0,0,,0,13,13,102,1,1,word,DENSITY,cursive,density_c.png,1.566,,,,
,,,,32385,001,2025-12-02_12h31.18.109,HW_LDT_1,2024.2.4,Linux x86_64,59.88023952,,,,,,,,,,,,,,,,,,,,,154.0872,154.2831,154.2833,154.7829,,,,,,,,,,,,,,0.7938,0,,,,,,,,,,,,,,z,,,,,,,,,,,,,,,15,0,154.7838,155.5831,m,0,0.7938,,[],[],[],[],[],[],[],155.5832,157.5832,157.5833,157.5838,[],[],[],[],[],[],[],,157.5839,157.5843,0.277761618,0.058342417,0,0,0,,0,14,14,47,1,1,TL,cagetory,print,cagetory_p.png,,,,,
,,,,32385,001,2025-12-02_12h31.18.109,HW_LDT_1,2024.2.4,Linux x86_64,59.88023952,,,,,,,,,,,,,,,,,,,,,157.5867,157.7832,157.7833,158.2831,,,,,,,,,,,,,,0.9797,1,,,,,,,,,,,,,,z,,,,,,,,,,,,,,,16,0,158.2845,159.2671,z,1,0.9797,,[],[],[],[],[],[],[],159.2674,161.2663,161.2665,161.2669,[],[],[],[],[],[],[],,161.2672,161.2677,0.277761618,0.058342417,0,0,0,,0,15,15,25,1,1,RL,quakity,cursive,quakity_c.png,,,,,
,,,,32385,001,2025-12-02_12h31.18.109,HW_LDT_1,2024.2.4,Linux x86_64,59.88023952,,,,,,,,,,,,,,,,,,,,,161.2704,161.4659,161.466,161.9707,,,,,,,,,,,,,,0.8708,1,,,,,,,,,,,,,,m,,,,,,,,,,,,,,,17,0,161.9716,162.8497,m,1,0.8708,,[],[],[],[],[],[],[],162.8499,164.8494,164.8495,164.8501,[],[],[],[],[],[],[],,164.8503,164.8508,0.277761618,0.058342417,0,0,0,,0,16,16,119,1,1,word,MEMORY,cursive,memory_c.png,,,,,
,,,,32385,001,2025-12-02_12h31.18.109,HW_LDT_1,2024.2.4,Linux x86_64,59.88023952,,,,,,,,,,,,,,,,,,,,,164.8532,165.0496,165.0497,165.5495,,,,,,,,,,,,,,1.2081,1,,,,,,,,,,,,,,m,,,,,,,,,,,,,,,18,0,165.5506,166.7659,m,1,1.2081,,[],[],[],[],[],[],[],166.766,168.7657,168.7657,168.7662,[],[],[],[],[],[],[],,168.7663,168.7666,0.277761618,0.058342417,0,0,0,,0,17,17,150,1,1,word,SENTIMENT,cursive,sentiment_c.png,,,,,
,,,,32385,001,2025-12-02_12h31.18.109,HW_LDT_1,2024.2.4,Linux x86_64,59.88023952,,,,,,,,,,,,,,,,,,,,,168.769,168.9656,168.9656,169.465,,,,,,,,,,,,,,1.1601,0,,,,,,,,,,,,,,z,,,,,,,,,,,,,,,19,0,169.4654,170.6323,m,0,1.1601,,[],[],[],[],[],[],[],170.6325,172.6323,172.6324,172.6329,[],[],[],[],[],[],[],,172.6331,172.6339,0.277761618,0.058342417,0,0,0,,0,18,18,75,1,1,TL,speficic,cursive,speficic_c.png,,,,,
,,,,32385,001,2025-12-02_12h31.18.109,HW_LDT_1,2024.2.4,Linux x86_64,59.88023952,,,,,,,,,,,,,,,,,,,,,172.6363,172.8321,172.8322,173.3323,,,,,,,,,,,,,,0.858,1,,,,,,,,,,,,,,z,,,,,,,,,,,,,,,20,0,173.3333,174.1989,z,1,0.858,,[],[],[],[],[],[],[],174.1991,176.1986,176.1987,176.1992,[],[],[],[],[],[],[],,176.1993,176.1997,0.277761618,0.058342417,0,0,0,,0,19,19,43,1,1,TL,bedise,print,bedise_p.png,,,,,
,,,,32385,001,2025-12-02_12h31.18.109,HW_LDT_1,2024.2.4,Linux x86_64,59.88023952,,,,,,,,,,,,,,,,,,,,,176.2019,176.3981,176.3982,176.8986,,,,,,,,,,,,,,0.8756,1,,,,,,,,,,,,,,m,,,,,,,,,,,,,,,21,0,176.8991,177.7813,m,1,0.8756,,[],[],[],[],[],[],[],177.7814,179.7817,179.7818,179.7823,[],[],[],[],[],[],[],,179.7824,179.7827,0.277761618,0.058342417,0,0,0,,0,20,20,124,1,1,word,NUMERICAL,print,numerical_p.png,,,,,
,,,,32385,001,2025-12-02_12h31.18.109,HW_LDT_1,2024.2.4,Linux x86_64,59.88023952,,,,,,,,,,,,,,,,,,,,,179.7852,179.9817,179.9818,180.4815,,,,,,,,,,,,,,0.7467,1,,,,,,,,,,,,,,m,,,,,,,,,,,,,,,22,0,180.4829,181.2309,m,1,0.7467,,[],[],[],[],[],[],[],181.231,183.2317,183.2318,183.2324,[],[],[],[],[],[],[],,183.2325,183.2329,0.277761618,0.058342417,0,0,0,,0,21,21,117,1,1,word,MARINE,print,marine_p.png,,,,,
,,,,32385,001,2025-12-02_12h31.18.109,HW_LDT_1,2024.2.4,Linux x86_64,59.88023952,,,,,,,,,,,,,,,,,,,,,183.2354,183.4317,183.4317,183.9316,,,,,,,,,,,,,,4.7583,1,,,,,,,,,,,,,,z,,,,,,,,,,,,,,,23,0,183.933,188.6979,z,1,4.7583,,[],[],[],[],[],[],[],188.6981,190.6971,190.6971,190.6973,[],[],[],[],[],[],[],,190.6974,190.6976,0.277761618,0.058342417,0,0,0,,0,22,22,71,1,1,TL,regilion,cursive,regilion_c.png,,,,,
,,,,32385,001,2025-12-02_12h31.18.109,HW_LDT_1,2024.2.4,Linux x86_64,59.88023952,,,,,,,,,,,,,,,,,,,,,190.6988,190.8971,190.8971,191.3978,,,,,,,,,,,,,,0.9093,1,,,,,,,,,,,,,,z,,,,,,,,,,,,,,,24,0,191.3986,192.3149,z,1,0.9093,,[],[],[],[],[],[],[],192.315,194.3145,194.3146,194.3151,[],[],[],[],[],[],[],,194.3153,194.3158,0.277761618,0.058342417,0,0,0,,0,23,23,60,1,1,TL,manire,print,manire_p.png,,,,,
,,,,32385,001,2025-12-02_12h31.18.109,HW_LDT_1,2024.2.4,Linux x86_64,59.88023952,,,,,,,,,,,,,,,,,,,,,194.3187,194.5146,194.5146,195.0145,,,,,,,,,,,,,,0.8918,1,,,,,,,,,,,,,,m,,,,,,,,,,,,,,,25,0,195.0154,195.9146,m,1,0.8918,,[],[],[],[],[],[],[],195.9148,197.9144,197.9145,197.9149,[],[],[],[],[],[],[],,197.9151,197.9155,0.277761618,0.058342417,0,0,0,,0,24,24,131,1,1,word,POPULAR,cursive,popular_c.png,,,,,
,,,,32385,001,2025-12-02_12h31.18.109,HW_LDT_1,2024.2.4,Linux x86_64,59.88023952,,,,,,,,,,,,,,,,,,,,,197.9181,198.1134,198.1135,198.6143,,,,,,,,,,,,,,1.5745,1,,,,,,,,,,,,,,z,,,,,,,,,,,,,,,26,1,198.6153,200.1976,z,1,1.5745,,[],[],[],[],[],[],[],200.1978,202.1972,202.1973,203.4476,[],[],[],[],[],[],[],z,203.4477,203.4481,0.277761618,0.058342417,0,0,0,,0,25,25,73,1,1,TL,ronamtic,cursive,ronamtic_c.png,1.2436,,,,
,,,,32385,001,2025-12-02_12h31.18.109,HW_LDT_1,2024.2.4,Linux x86_64,59.88023952,,,,,,,,,,,,,,,,,,,,,203.4506,203.6471,203.6472,204.147,,,,,,,,,,,,,,0.8309,1,,,,,,,,,,,,,,m,,,,,,,,,,,,,,,27,0,204.1484,204.9809,m,1,0.8309,,[],[],[],[],[],[],[],204.9813,206.9799,206.9799,206.9801,[],[],[],[],[],[],[],,206.9802,206.9803,0.277761618,0.058342417,0,0,0,,0,26,26,135,1,1,word,QUALITY,cursive,quality_c.png,,,,,
,,,,32385,001,2025-12-02_12h31.18.109,HW_LDT_1,2024.2.4,Linux x86_64,59.88023952,,,,,,,,,,,,,,,,,,,,,206.9816,207.1797,207.1797,207.6795,,,,,,,,,,,,,,1.1107,0,,,,,,,,,,,,,,z,,,,,,,,,,,,,,,28,0,207.6799,208.7969,m,0,1.1107,,[],[],[],[],[],[],[],208.7971,210.7964,210.7965,210.7967,[],[],[],[],[],[],[],,210.7967,210.7969,0.277761618,0.058342417,0,0,0,,0,27,27,59,1,1,TL,lirebal,cursive,lirebal_c.png,,,,,
,,,,32385,001,2025-12-02_12h31.18.109,HW_LDT_1,2024.2.4,Linux x86_64,59.88023952,,,,,,,,,,,,,,,,,,,,,210.7983,210.9962,210.9963,211.4965,,,,,,,,,,,,,,1.5257,1,,,,,,,,,,,,,,z,,,,,,,,,,,,,,,29,0,211.4976,213.032,z,1,1.5257,,[],[],[],[],[],[],[],213.0322,215.0323,215.0324,215.0328,[],[],[],[],[],[],[],,215.0329,215.0332,0.277761618,0.058342417,0,0,0,,0,28,28,17,1,1,RL,menowy,cursive,menowy_c.png,,,,,
,,,,32385,001,2025-12-02_12h31.18.109,HW_LDT_1,2024.2.4,Linux x86_64,59.88023952,,,,,,,,,,,,,,,,,,,,,215.0356,215.2297,215.2299,215.7297,,,,,,,,,,,,,,1.1274,1,,,,,,,,,,,,,,z,,,,,,,,,,,,,,,30,0,215.7309,216.8633,z,1,1.1274,,[],[],[],[],[],[],[],216.8634,218.8632,218.8633,218.8637,[],[],[],[],[],[],[],,218.8638,218.8641,0.277761618,0.058342417,0,0,0,,0,29,29,31,1,1,RL,reconal,cursive,reconal_c.png,,,,,
,,,,32385,001,2025-12-02_12h31.18.109,HW_LDT_1,2024.2.4,Linux x86_64,59.88023952,,,,,,,,,,,,,,,,,,,,,218.8666,219.0623,219.0623,219.5632,,,,,,,,,,,,,,0.8591,1,,,,,,,,,,,,,,z,,,,,,,,,,,,,,,31,0,219.5643,220.4297,z,1,0.8591,,[],[],[],[],[],[],[],220.4298,222.4296,222.4297,222.4302,[],[],[],[],[],[],[],,222.4304,222.4306,0.277761618,0.058342417,0,0,0,,0,30,30,18,1,1,RL,mishafe,print,mishafe_p.png,,,,,
,,,,32385,001,2025-12-02_12h31.18.109,HW_LDT_1,2024.2.4,Linux x86_64,59.88023952,,,,,,,,,,,,,,,,,,,,,222.4338,222.6293,222.6294,223.1295,,,,,,,,,,,,,,1.5273,0,,,,,,,,,,,,,,m,,,,,,,,,,,,,,,32,0,223.1305,224.6625,z,0,1.5273,,[],[],[],[],[],[],[],224.6627,226.6623,226.6624,226.6625,[],[],[],[],[],[],[],,226.6625,226.6626,0.277761618,0.058342417,0,0,0,,0,31,31,149,1,1,word,SENATOR,cursive,senator_c.png,,,,,
,,,,32385,001,2025-12-02_12h31.18.109,HW_LDT_1,2024.2.4,Linux x86_64,59.88023952,,,,,,,,,,,,,,,,,,,,,226.6648,226.8629,226.863,227.3628,,,,,,,,,,,,,,0.4118,0,,,,,,,,,,,,,,m,,,,,,,,,,,,,,,33,0,227.3639,227.7789,z,0,0.4118,,[],[],[],[],[],[],[],227.7791,229.7782,229.7783,229.7784,[],[],[],[],[],[],[],,229.7785,229.7786,0.277761618,0.058342417,0,0,0,,0,32,32,126,1,1,word,OPTIMAL,print,optimal_p.png,,,,,
,,,,32385,001,2025-12-02_12h31.18.109,HW_LDT_1,2024.2.4,Linux x86_64,59.88023952,,,,,,,,,,,,,,,,,,,,,229.7802,229.9783,229.9784,230.4792,,,,,,,,,,,,,,0.0138,0,,,,,,,,,,,,,,m,,,,,,,,,,,,,,,34,0,230.4808,230.4959,z,0,0.0138,,[],[],[],[],[],[],[],230.496,232.4952,232.4952,232.4956,[],[],[],[],[],[],[],,232.4959,232.4964,0.277761618,0.058342417,0,0,0,,0,33,33,86,1,1,word,BESIDE,print,beside_p.png,,,,,
,,,,32385,001,2025-12-02_12h31.18.109,HW_LDT_1,2024.2.4,Linux x86_64,59.88023952,,,,,,,,,,,,,,,,,,,,,232.499,232.6953,232.6954,233.1956,,,,,,,,,,,,,,0.2479,0,,,,,,,,,,,,,,m,,,,,,,,,,,,,,,35,0,233.1968,233.4459,z,0,0.2479,,[],[],[],[],[],[],[],233.4461,235.4451,235.4452,235.4456,[],[],[],[],[],[],[],,235.4457,235.446,0.277761618,0.058342417,0,0,0,,0,34,34,85,1,1,word,BENEFIT,print,benefit_p.png,,,,,
,,,,32385,001,2025-12-02_12h31.18.109,HW_LDT_1,2024.2.4,Linux x86_64,59.88023952,,,,,,,,,,,,,,,,,,,,,235.4487,235.6453,235.6454,236.1452,,,,,,,,,,,,,,0.9126,1,,,,,,,,,,,,,,m,,,,,,,,,,,,,,,36,0,236.1461,237.0609,m,1,0.9126,,[],[],[],[],[],[],[],237.061,239.0615,239.0616,239.062,[],[],[],[],[],[],[],,239.0621,239.0623,0.277761618,0.058342417,0,0,0,,0,35,35,112,1,1,word,LIBERAL,cursive,liberal_c.png,,,,,
,,,,32385,001,2025-12-02_12h31.18.109,HW_LDT_1,2024.2.4,Linux x86_64,59.88023952,,,,,,,,,,,,,,,,,,,,,239.065,239.2612,239.2612,239.7608,,,,,,,,,,,,,,3.061,1,,,,,,,,,,,,,,m,,,,,,,,,,,,,,,37,0,239.7614,242.8277,m,1,3.061,,[],[],[],[],[],[],[],242.8279,244.8276,244.8277,244.8282,[],[],[],[],[],[],[],,244.8283,244.8284,0.277761618,0.058342417,0,0,0,,0,36,36,106,1,1,word,ELABORATE,print,elaborate_p.png,,,,,
,,,,32385,001,2025-12-02_12h31.18.109,HW_LDT_1,2024.2.4,Linux x86_64,59.88023952,,,,,,,,,,,,,,,,,,,,,244.8312,245.0274,245.0275,245.5274,,,,,,,,,,,,,,1.56,1,,,,,,,,,,,,,,m,,,,,,,,,,,,,,,38,0,245.5283,247.0942,m,1,1.56,,[],[],[],[],[],[],[],247.0944,249.0937,249.0937,249.0939,[],[],[],[],[],[],[],,249.0939,249.0941,0.336999878,-0.035849958,0,0,0,,0,37,37,133,1,1,word,PROVIDE,print,provide_p.png,,,,,
,,,,32385,001,2025-12-02_12h31.18.109,HW_LDT_1,2024.2.4,Linux x86_64,59.88023952,,,,,,,,,,,,,,,,,,,,,249.1165,249.2941,249.2942,249.794,,,,,,,,,,,,,,1.1224,1,,,,,,,,,,,,,,m,,,,,,,,,,,,,,,39,0,249.795,250.9277,m,1,1.1224,,[],[],[],[],[],[],[],250.9279,252.9272,252.9273,252.9277,[],[],[],[],[],[],[],,252.9279,252.9281,0.336999878,-0.035849958,0,0,0,,0,38,38,123,1,1,word,MODERATE,print,moderate_p.png,,,,,
,,,,32385,001,2025-12-02_12h31.18.109,HW_LDT_1,2024.2.4,Linux x86_64,59.88023952,,,,,,,,,,,,,,,,,,,,,252.9305,253.1273,253.1273,253.6272,,,,,,,,,,,,,,0.8316,1,,,,,,,,,,,,,,z,,,,,,,,,,,,,,,40,0,253.6281,254.4611,z,1,0.8316,,[],[],[],[],[],[],[],254.4614,256.4604,256.4604,256.4608,[],[],[],[],[],[],[],,256.4609,256.4612,0.336999878,-0.035849958,0,0,0,,0,39,39,44,1,1,TL,cateferia,cursive,cateferia_c.png,,,,,
,,,,32385,001,2025-12-02_12h31.18.109,HW_LDT_1,2024.2.4,Linux x86_64,59.88023952,,,,,,,,,,,,,,,,,,,,,256.4636,256.6605,256.6606,257.1604,,,,,,,,,,,,,,1.7412,1,,,,,,,,,,,,,,z,,,,,,,,,,,,,,,41,0,257.1613,258.9104,z,1,1.7412,,[],[],[],[],[],[],[],258.9105,260.9101,260.9103,260.9107,[],[],[],[],[],[],[],,260.9108,260.911,0.336999878,-0.035849958,0,0,0,,0,40,40,50,1,1,TL,condiser,cursive,condiser_c.png,,,,,
,,,,32385,001,2025-12-02_12h31.18.109,HW_LDT_1,2024.2.4,Linux x86_64,59.88023952,,,,,,,,,,,,,,,,,,,,,260.9135,261.1096,261.1097,261.6101,,,,,,,,,,,,,,1.3252,1,,,,,,,,,,,,,,m,,,,,,,,,,,,,,,42,0,261.6109,262.9436,m,1,1.3252,,[],[],[],[],[],[],[],262.9437,264.9434,264.9435,264.9439,[],[],[],[],[],[],[],,264.9441,264.9443,0.336999878,-0.035849958,0,0,0,,0,41,41,81,1,1,word,ADVISORY,cursive,advisory_c.png,,,,,
,,,,32385,001,2025-12-02_12h31.18.109,HW_LDT_1,2024.2.4,Linux x86_64,59.88023952,,,,,,,,,,,,,,,,,,,,,264.9466,265.1431,265.1432,265.6433,,,,,,,,,,,,,,0.8892,1,,,,,,,,,,,,,,m,,,,,,,,,,,,,,,43,0,265.6442,266.543,m,1,0.8892,,[],[],[],[],[],[],[],266.5431,268.5427,268.5429,268.5438,[],[],[],[],[],[],[],,268.5439,268.5439,0.336999878,-0.035849958,0,0,0,,0,42,42,116,1,1,word,MARGINAL,print,marginal_p.png,,,,,
,,,,32385,001,2025-12-02_12h31.18.109,HW_LDT_1,2024.2.4,Linux x86_64,59.88023952,,,,,,,,,,,,,,,,,,,,,268.5453,268.7432,268.7433,269.243,,,,,,,,,,,,,,0.9217,1,,,,,,,,,,,,,,z,,,,,,,,,,,,,,,44,0,269.244,270.1764,z,1,0.9217,,[],[],[],[],[],[],[],270.1766,272.1762,272.1762,272.1766,[],[],[],[],[],[],[],,272.1768,272.177,0.336999878,-0.035849958,0,0,0,,0,43,43,78,1,1,TL,vecolity,print,vecolity_p.png,,,,,
,,,,32385,001,2025-12-02_12h31.18.109,HW_LDT_1,2024.2.4,Linux x86_64,59.88023952,,,,,,,,,,,,,,,,,,,,,272.1797,272.3763,272.3764,272.8762,,,,,,,,,,,,,,0.9096,1,,,,,,,,,,,,,,m,,,,,,,,,,,,,,,45,0,272.8772,273.7928,m,1,0.9096,,[],[],[],[],[],[],[],273.7928,275.7926,275.7927,275.7932,[],[],[],[],[],[],[],,275.7932,275.7934,0.336999878,-0.035849958,0,0,0,,0,44,44,83,1,1,word,ANIMAL,print,animal_p.png,,,,,
,,,,32385,001,2025-12-02_12h31.18.109,HW_LDT_1,2024.2.4,Linux x86_64,59.88023952,,,,,,,,,,,,,,,,,,,,,275.7959,275.9812,275.9813,276.4922,,,,,,,,,,,,,,0.7239,1,,,,,,,,,,,,,,m,,,,,,,,,,,,,,,46,1,276.4928,277.2256,m,1,0.7239,,[],[],[],[],[],[],[],277.2257,279.2258,279.2258,280.6427,[],[],[],[],[],[],[],m,280.6428,280.6432,0.336999878,-0.035849958,0,0,0,,0,45,45,97,1,1,word,COVERAGE,print,coverage_p.png,1.412,,,,
,,,,32385,001,2025-12-02_12h31.18.109,HW_LDT_1,2024.2.4,Linux x86_64,59.88023952,,,,,,,,,,,,,,,,,,,,,280.6462,280.842,280.842,281.342,,,,,,,,,,,,,,0.8797,1,,,,,,,,,,,,,,z,,,,,,,,,,,,,,,47,1,281.3427,282.2256,z,1,0.8797,,[],[],[],[],[],[],[],282.2257,284.2255,284.2256,285.8928,[],[],[],[],[],[],[],m,285.893,285.8933,0.336999878,-0.035849958,0,0,0,,0,46,46,28,1,1,RL,renutal,print,renutal_p.png,1.666,,,,
,,,,32385,001,2025-12-02_12h31.18.109,HW_LDT_1,2024.2.4,Linux x86_64,59.88023952,,,,,,,,,,,,,,,,,,,,,285.8969,286.0921,286.0922,286.5916,,,,,,,,,,,,,,0.3589,1,,,,,,,,,,,,,,z,,,,,,,,,,,,,,,48,0,286.5921,286.9588,z,1,0.3589,,[],[],[],[],[],[],[],286.959,288.9583,288.9584,288.9587,[],[],[],[],[],[],[],,288.9587,288.9589,0.336999878,-0.035849958,0,0,0,,0,47,47,49,1,1,TL,clicinal,cursive,clicinal_c.png,,,,,
,,,,32385,001,2025-12-02_12h31.18.109,HW_LDT_1,2024.2.4,Linux x86_64,59.88023952,,,,,,,,,,,,,,,,,,,,,288.9607,289.1585,289.1586,289.6586,,,,,,,,,,,,,,0.6916,1,,,,,,,,,,,,,,m,,,,,,,,,,,,,,,49,1,289.6595,290.3586,m,1,0.6916,,[],[],[],[],[],[],[],290.3587,292.3584,292.3585,293.3918,[],[],[],[],[],[],[],m,293.392,293.3923,0.336999878,-0.035849958,0,0,0,,0,48,48,100,1,1,word,DECADE,print,decade_p.png,1.0254,,,,
,,,,32385,001,2025-12-02_12h31.18.109,HW_LDT_1,2024.2.4,Linux x86_64,59.88023952,,,,,,,,,,,,,,,,,,,,,293.3947,293.5917,293.5918,294.0912,,,,,,,,,,,,,,0.8286,1,,,,,,,,,,,,,,m,,,,,,,,,,,,,,,50,0,294.0916,294.9249,m,1,0.8286,,[],[],[],[],[],[],[],294.9251,296.9249,296.9249,296.9254,[],[],[],[],[],[],[],,296.9254,296.9257,0.336999878,-0.035849958,0,0,0,,0,49,49,113,1,1,word,LITERAL,print,literal_p.png,,,,,
,,,,32385,001,2025-12-02_12h31.18.109,HW_LDT_1,2024.2.4,Linux x86_64,59.88023952,,,,,,,,,,,,,,,,,,,,,296.9281,297.1248,297.1249,297.6247,,,,,,,,,,,,,,1.7771,0,,,,,,,,,,,,,,z,,,,,,,,,,,,,,,51,0,297.6266,299.408,m,0,1.7771,,[],[],[],[],[],[],[],299.4082,301.408,301.4081,301.4092,[],[],[],[],[],[],[],,301.4094,301.4097,0.336999878,-0.035849958,0,0,0,,0,50,50,61,1,1,TL,mecidine,cursive,mecidine_c.png,,,,,
,,,,32385,001,2025-12-02_12h31.18.109,HW_LDT_1,2024.2.4,Linux x86_64,59.88023952,,,,,,,,,,,,,,,,,,,,,301.4121,301.6079,301.608,302.1079,,,,,,,,,,,,,,0.8237,1,,,,,,,,,,,,,,m,,,,,,,,,,,,,,,52,0,302.1088,302.9414,m,1,0.8237,,[],[],[],[],[],[],[],302.9416,304.9405,304.9406,304.9408,[],[],[],[],[],[],[],,304.9408,304.9409,0.336999878,-0.035849958,0,0,0,,0,51,51,115,1,1,word,LOGICAL,cursive,logical_c.png,,,,,
,,,,32385,001,2025-12-02_12h31.18.109,HW_LDT_1,2024.2.4,Linux x86_64,59.88023952,,,,,,,,,,,,,,,,,,,,,304.9421,305.1408,305.1409,305.641,,,,,,,,,,,,,,0.6481,1,,,,,,,,,,,,,,m,,,,,,,,,,,,,,,53,0,305.6426,306.2922,m,1,0.6481,,[],[],[],[],[],[],[],306.2923,308.2909,308.2909,308.2916,[],[],[],[],[],[],[],,308.2917,308.2919,0.336999878,-0.035849958,0,0,0,,0,52,52,114,1,1,word,LOCATE,print,locate_p.png,,,,,
,,,,32385,001,2025-12-02_12h31.18.109,HW_LDT_1,2024.2.4,Linux x86_64,59.88023952,,,,,,,,,,,,,,,,,,,,,308.2933,308.491,308.491,308.9908,,,,,,,,,,,,,,0.6416,0,,,,,,,,,,,,,,z,,,,,,,,,,,,,,,54,0,308.9917,309.641,m,0,0.6416,,[],[],[],[],[],[],[],309.641,311.6406,311.6407,311.6412,[],[],[],[],[],[],[],,311.6413,311.6415,0.336999878,-0.035849958,0,0,0,,0,53,53,46,1,1,TL,catipal,print,catipal_p.png,,,,,
,,,,32385,001,2025-12-02_12h31.18.109,HW_LDT_1,2024.2.4,Linux x86_64,59.88023952,,,,,,,,,,,,,,,,,,,,,311.6439,311.8405,311.8406,312.3406,,,,,,,,,,,,,,0.681,1,,,,,,,,,,,,,,m,,,,,,,,,,,,,,,55,0,312.3416,313.0255,m,1,0.681,,[],[],[],[],[],[],[],313.0257,315.0238,315.0239,315.0244,[],[],[],[],[],[],[],,315.0244,315.0246,0.336999878,-0.035849958,0,0,0,,0,54,54,84,1,1,word,BELOVED,print,beloved_p.png,,,,,
,,,,32385,001,2025-12-02_12h31.18.109,HW_LDT_1,2024.2.4,Linux x86_64,59.88023952,,,,,,,,,,,,,,,,,,,,,315.0269,315.2239,315.224,315.7237,,,,,,,,,,,,,,0.6402,1,,,,,,,,,,,,,,m,,,,,,,,,,,,,,,56,0,315.7246,316.3736,m,1,0.6402,,[],[],[],[],[],[],[],316.3737,318.3738,318.3739,318.3743,[],[],[],[],[],[],[],,318.3744,318.3746,0.336999878,-0.035849958,0,0,0,,0,55,55,121,1,1,word,MISTAKE,print,mistake_p.png,,,,,
,,,,32385,001,2025-12-02_12h31.18.109,HW_LDT_1,2024.2.4,Linux x86_64,59.88023952,,,,,,,,,,,,,,,,,,,,,318.377,318.5739,318.5739,319.0737,,,,,,,,,,,,,,4.7831,1,,,,,,,,,,,,,,z,,,,,,,,,,,,,,,57,0,319.0746,323.8588,z,1,4.7831,,[],[],[],[],[],[],[],323.8588,325.8566,325.8567,325.8571,[],[],[],[],[],[],[],,325.8573,325.8574,0.336999878,-0.035849958,0,0,0,,0,56,56,58,1,1,TL,incidate,cursive,incidate_c.png,,,,,
,,,,32385,001,2025-12-02_12h31.18.109,HW_LDT_1,2024.2.4,Linux x86_64,59.88023952,,,,,,,,,,,,,,,,,,,,,325.8597,326.0563,326.0564,326.5566,,,,,,,,,,,,,,0.7433,1,,,,,,,,,,,,,,m,,,,,,,,,,,,,,,58,0,326.5571,327.3067,m,1,0.7433,,[],[],[],[],[],[],[],327.3068,329.3065,329.3067,329.3071,[],[],[],[],[],[],[],,329.3072,329.3074,0.336999878,-0.035849958,0,0,0,,0,57,57,89,1,1,word,CAPACITY,print,capacity_p.png,,,,,
,,,,32385,001,2025-12-02_12h31.18.109,HW_LDT_1,2024.2.4,Linux x86_64,59.88023952,,,,,,,,,,,,,,,,,,,,,329.3097,329.5064,329.5064,330.0065,,,,,,,,,,,,,,1.0241,1,,,,,,,,,,,,,,z,,,,,,,,,,,,,,,59,0,330.0074,331.0396,z,1,1.0241,,[],[],[],[],[],[],[],331.0405,333.0395,333.0395,333.04,[],[],[],[],[],[],[],,333.0401,333.0404,0.336999878,-0.035849958,0,0,0,,0,58,58,11,1,1,RL,elacodate,print,elacodate_p.png,,,,,
,,,,32385,001,2025-12-02_12h31.18.109,HW_LDT_1,2024.2.4,Linux x86_64,59.88023952,,,,,,,,,,,,,,,,,,,,,333.0427,333.2395,333.2395,333.7395,,,,,,,,,,,,,,1.641,1,,,,,,,,,,,,,,m,,,,,,,,,,,,,,,60,0,333.7405,335.3895,m,1,1.641,,[],[],[],[],[],[],[],335.3896,337.3893,337.3893,337.3895,[],[],[],[],[],[],[],,337.3896,337.3897,0.336999878,-0.035849958,0,0,0,,0,59,59,98,1,1,word,CRIMINAL,print,criminal_p.png,,,,,
,,,,32385,001,2025-12-02_12h31.18.109,HW_LDT_1,2024.2.4,Linux x86_64,59.88023952,,,,,,,,,,,,,,,,,,,,,337.3912,337.5892,337.5893,338.0891,,,,,,,,,,,,,,1.4247,0,,,,,,,,,,,,,,z,,,,,,,,,,,,,,,61,1,338.0901,339.5226,m,0,1.4247,,[],[],[],[],[],[],[],339.5227,341.5224,341.5224,342.7895,[],[],[],[],[],[],[],m,342.7895,342.7898,0.336999878,-0.035849958,0,0,0,,0,60,60,45,1,1,TL,cacapity,print,cacapity_p.png,1.2615,,,,
,,,,32385,001,2025-12-02_12h31.18.109,HW_LDT_1,2024.2.4,Linux x86_64,59.88023952,,,,,,,,,,,,,,,,,,,,,342.7922,342.9889,342.989,343.4888,,,,,,,,,,,,,,0.9319,1,,,,,,,,,,,,,,z,,,,,,,,,,,,,,,62,0,343.4898,344.4228,z,1,0.9319,,[],[],[],[],[],[],[],344.423,346.4221,346.4222,346.4233,[],[],[],[],[],[],[],,346.4234,346.4237,0.336999878,-0.035849958,0,0,0,,0,61,61,39,1,1,RL,vabifity,cursive,vabifity_c.png,,,,,
,,,,32385,001,2025-12-02_12h31.18.109,HW_LDT_1,2024.2.4,Linux x86_64,59.88023952,,,,,,,,,,,,,,,,,,,,,346.426,346.6221,346.6222,347.1221,,,,,,,,,,,,,,4.1571,1,,,,,,,,,,,,,,z,,,,,,,,,,,,,,,63,0,347.1229,351.2887,z,1,4.1571,,[],[],[],[],[],[],[],351.2888,353.2886,353.2887,353.2891,[],[],[],[],[],[],[],,353.2892,353.2894,0.336999878,-0.035849958,0,0,0,,0,62,62,36,1,1,RL,speniven,cursive,speniven_c.png,,,,,
,,,,32385,001,2025-12-02_12h31.18.109,HW_LDT_1,2024.2.4,Linux x86_64,59.88023952,,,,,,,,,,,,,,,,,,,,,353.2917,353.4884,353.4885,353.9882,,,,,,,,,,,,,,1.2747,1,,,,,,,,,,,,,,z,,,,,,,,,,,,,,,64,0,353.9889,355.2719,z,1,1.2747,,[],[],[],[],[],[],[],355.2719,357.272,357.272,357.2725,[],[],[],[],[],[],[],,357.2725,357.2728,0.336999878,-0.035849958,0,0,0,,0,63,63,19,1,1,RL,monebate,print,monebate_p.png,,,,,
,,,,32385,001,2025-12-02_12h31.18.109,HW_LDT_1,2024.2.4,Linux x86_64,59.88023952,,,,,,,,,,,,,,,,,,,,,357.2755,357.4714,357.4715,357.9716,,,,,,,,,,,,,,0.9609,1,,,,,,,,,,,,,,m,,,,,,,,,,,,,,,65,0,357.9725,358.9376,m,1,0.9609,,[],[],[],[],[],[],[],358.9376,360.9379,360.9381,360.9383,[],[],[],[],[],[],[],,360.9384,360.9385,0.336999878,-0.035849958,0,0,0,,0,64,64,152,1,1,word,SPECIMEN,cursive,specimen_c.png,,,,,
,,,,32385,001,2025-12-02_12h31.18.109,HW_LDT_1,2024.2.4,Linux x86_64,59.88023952,,,,,,,,,,,,,,,,,,,,,360.9397,361.138,361.1381,361.6379,,,,,,,,,,,,,,7.411,0,,,,,,,,,,,,,,z,,,,,,,,,,,,,,,66,0,361.6388,369.0544,m,0,7.411,,[],[],[],[],[],[],[],369.0545,371.054,371.0541,371.0543,[],[],[],[],[],[],[],,371.0544,371.0545,0.150078989,0.364139021,0,0,0,,0,65,65,79,1,1,TL,veretan,print,veretan_p.png,,,,,
,,,,32385,001,2025-12-02_12h31.18.109,HW_LDT_1,2024.2.4,Linux x86_64,59.88023952,,,,,,,,,,,,,,,,,,,,,371.0562,371.2536,371.2536,371.7539,,,,,,,,,,,,,,1.0941,1,,,,,,,,,,,,,,m,,,,,,,,,,,,,,,67,0,371.755,372.8541,m,1,1.0941,,[],[],[],[],[],[],[],372.8542,374.8535,374.8535,374.8538,[],[],[],[],[],[],[],,374.8538,374.8539,0.150078989,0.364139021,0,0,0,,0,66,66,95,1,1,word,COMEDY,cursive,comedy_c.png,,,,,
,,,,32385,001,2025-12-02_12h31.18.109,HW_LDT_1,2024.2.4,Linux x86_64,59.88023952,,,,,,,,,,,,,,,,,,,,,374.8552,375.0539,375.054,375.5538,,,,,,,,,,,,,,3.4481,1,,,,,,,,,,,,,,z,,,,,,,,,,,,,,,68,0,375.5548,379.0038,,0,,,[-0.39076890990632407],[-0.34615476587184046],[1],[0],[0],[3.448099999999613],"[""button_left_main""]",379.004,381.0032,381.0032,381.0036,[],[],[],[],[],[],[],,381.0037,381.0039,-0.39076891,-0.346154766,0,0,0,,0,67,67,77,1,1,TL,tritube,cursive,tritube_c.png,,,,,
,,,,32385,001,2025-12-02_12h31.18.109,HW_LDT_1,2024.2.4,Linux x86_64,59.88023952,,,,,,,,,,,,,,,,,,,,,381.0062,381.2036,381.2037,381.7037,,,,,,,,,,,,,,0.0638,1,,,,,,,,,,,,,,z,,,,,,,,,,,,,,,69,0,381.7046,381.77,z,1,0.0638,,[],[],[],[],[],[],[],381.7702,383.7701,383.7702,383.7706,[],[],[],[],[],[],[],,383.7707,383.7709,-0.39076891,-0.346154766,0,0,0,,0,68,68,70,1,1,TL,relugar,print,relugar_p.png,,,,,
,,,,32385,001,2025-12-02_12h31.18.109,HW_LDT_1,2024.2.4,Linux x86_64,59.88023952,,,,,,,,,,,,,,,,,,,,,383.7733,383.9699,383.97,384.4697,,,,,,,,,,,,,,0.0924,1,,,,,,,,,,,,,,z,,,,,,,,,,,,,,,70,1,384.4706,384.57,z,1,0.0924,,[],[],[],[],[],[],[],384.5702,386.5698,386.5698,386.6531,[],[],[],[],[],[],[],z,386.6532,386.6534,-0.39076891,-0.346154766,0,0,0,,0,69,69,32,1,1,RL,rebicent,print,rebicent_p.png,0.0798,,,,
,,,,32385,001,2025-12-02_12h31.18.109,HW_LDT_1,2024.2.4,Linux x86_64,59.88023952,,,,,,,,,,,,,,,,,,,,,386.6557,386.853,386.8531,387.3533,,,,,,,,,,,,,,0.0424,0,,,,,,,,,,,,,,m,,,,,,,,,,,,,,,71,0,387.3543,387.4031,z,0,0.0424,,[],[],[],[],[],[],[],387.4033,389.4028,389.4029,389.4033,[],[],[],[],[],[],[],,389.4034,389.4036,-0.39076891,-0.346154766,0,0,0,,0,70,70,140,1,1,word,RELATIVE,cursive,relative_c.png,,,,,
,,,,32385,001,2025-12-02_12h31.18.109,HW_LDT_1,2024.2.4,Linux x86_64,59.88023952,,,,,,,,,,,,,,,,,,,,,389.406,389.6028,389.6029,390.1028,,,,,,,,,,,,,,0.1243,0,,,,,,,,,,,,,,m,,,,,,,,,,,,,,,72,1,390.1036,390.2362,z,0,0.1243,,[],[],[],[],[],[],[],390.2364,392.2357,392.2357,392.4191,[],[],[],[],[],[],[],z,392.4192,392.4195,-0.39076891,-0.346154766,0,0,0,,0,71,71,104,1,1,word,DOMINANT,cursive,dominant_c.png,0.1812,,,,
,,,,32385,001,2025-12-02_12h31.18.109,HW_LDT_1,2024.2.4,Linux x86_64,59.88023952,,,,,,,,,,,,,,,,,,,,,392.4217,392.6192,392.6192,393.1191,,,,,,,,,,,,,,0.0647,0,,,,,,,,,,,,,,m,,,,,,,,,,,,,,,73,1,393.12,393.1863,z,0,0.0647,,[],[],[],[],[],[],[],393.1864,395.1861,395.1862,395.3361,[],[],[],[],[],[],[],m,395.3362,395.3364,-0.39076891,-0.346154766,0,0,0,,0,72,72,156,1,1,word,TRIBUTE,cursive,tribute_c.png,0.1463,,,,
,,,,32385,001,2025-12-02_12h31.18.109,HW_LDT_1,2024.2.4,Linux x86_64,59.88023952,,,,,,,,,,,,,,,,,,,,,395.3387,395.5362,395.5362,396.0357,,,,,,,,,,,,,,0.0231,0,,,,,,,,,,,,,,z,,,,,,,,,,,,,,,74,0,396.0362,396.0693,m,0,0.0231,,[],[],[],[],[],[],[],396.0693,398.0693,398.0693,398.0698,[],[],[],[],[],[],[],,398.0698,398.0702,-0.39076891,-0.346154766,0,0,0,,0,73,73,3,1,1,RL,casena,cursive,casena_c.png,,,,,
,,,,32385,001,2025-12-02_12h31.18.109,HW_LDT_1,2024.2.4,Linux x86_64,59.88023952,,,,,,,,,,,,,,,,,,,,,398.0724,398.2693,398.2693,398.7692,,,,,,,,,,,,,,0.0745,1,,,,,,,,,,,,,,m,,,,,,,,,,,,,,,75,1,398.7702,398.8526,m,1,0.0745,,[],[],[],[],[],[],[],398.8528,400.8523,400.8524,401.0191,[],[],[],[],[],[],[],z,401.0192,401.0195,-0.39076891,-0.346154766,0,0,0,,0,74,74,151,1,1,word,SPECIFIC,cursive,specific_c.png,0.1572,,,,
,,,,32385,001,2025-12-02_12h31.18.109,HW_LDT_1,2024.2.4,Linux x86_64,59.88023952,,,,,,,,,,,,,,,,,,,,,401.0218,401.2189,401.219,401.7189,,,,,,,,,,,,,,0.1572,0,,,,,,,,,,,,,,z,,,,,,,,,,,,,,,76,0,401.7198,401.8852,m,0,0.1572,,[],[],[],[],[],[],[],401.8853,403.8857,403.8857,403.8862,[],[],[],[],[],[],[],,403.8862,403.8864,-0.39076891,-0.346154766,0,0,0,,0,75,75,27,1,1,RL,rasibal,print,rasibal_p.png,,,,,
,,,,32385,001,2025-12-02_12h31.18.109,HW_LDT_1,2024.2.4,Linux x86_64,59.88023952,,,,,,,,,,,,,,,,,,,,,403.8887,404.0856,404.0857,404.5856,,,,,,,,,,,,,,0.247,0,,,,,,,,,,,,,,m,,,,,,,,,,,,,,,77,0,404.5865,404.8351,z,0,0.247,,[],[],[],[],[],[],[],404.8352,406.8354,406.8354,406.8356,[],[],[],[],[],[],[],,406.8357,406.8358,-0.39076891,-0.346154766,0,0,0,,0,76,76,82,1,1,word,AMATEUR,print,amateur_p.png,,,,,
,,,,32385,001,2025-12-02_12h31.18.109,HW_LDT_1,2024.2.4,Linux x86_64,59.88023952,,,,,,,,,,,,,,,,,,,,,406.8379,407.0351,407.0351,407.5354,,,,,,,,,,,,,,0.1752,0,,,,,,,,,,,,,,z,,,,,,,,,,,,,,,78,0,407.5362,407.7188,m,0,0.1752,,[],[],[],[],[],[],[],407.719,409.7185,409.7186,409.719,[],[],[],[],[],[],[],,409.7192,409.7194,-0.39076891,-0.346154766,0,0,0,,0,77,77,23,1,1,RL,potugar,cursive,potugar_c.png,,,,,
,,,,32385,001,2025-12-02_12h31.18.109,HW_LDT_1,2024.2.4,Linux x86_64,59.88023952,,,,,,,,,,,,,,,,,,,,,409.7216,409.9181,409.9181,410.4184,,,,,,,,,,,,,,0.0911,0,,,,,,,,,,,,,,m,,,,,,,,,,,,,,,79,0,410.4193,410.5185,z,0,0.0911,,[],[],[],[],[],[],[],410.5187,412.5182,412.5182,412.5195,[],[],[],[],[],[],[],,412.5196,412.5198,-0.39076891,-0.346154766,0,0,0,,0,78,78,94,1,1,word,CLINICAL,cursive,clinical_c.png,,,,,
,,,,32385,001,2025-12-02_12h31.18.109,HW_LDT_1,2024.2.4,Linux x86_64,59.88023952,,,,,,,,,,,,,,,,,,,,,412.5221,412.7183,412.7184,413.218,,,,,,,,,,,,,,0.1254,1,,,,,,,,,,,,,,m,,,,,,,,,,,,,,,80,0,413.2185,413.3516,m,1,0.1254,,[],[],[],[],[],[],[],413.3518,415.3513,415.3514,415.3518,[],[],[],[],[],[],[],,415.3519,424.4679,-0.047578399,-0.448411119,1,0,0,,0,79,79,125,1,1,word,OPERATOR,cursive,operator_c.png,,,break_done_button,,
,,,,32385,001,2025-12-02_12h31.18.109,HW_LDT_1,2024.2.4,Linux x86_64,59.88023952,,,,,,,,,,,,,,,,,,,,,424.4691,424.6679,424.6679,425.1678,,,,,,,,,,,,,,0.0614,0,,,,,,,,,,,,,,m,,,,,,,,,,,,,,,81,0,425.1687,425.2345,z,0,0.0614,,[],[],[],[],[],[],[],425.2346,427.2342,427.2343,427.2348,[],[],[],[],[],[],[],,427.2349,427.2351,-0.047578399,-0.448411119,0,0,0,,0,80,80,136,1,1,word,RADICAL,print,radical_p.png,,,,,
,,,,32385,001,2025-12-02_12h31.18.109,HW_LDT_1,2024.2.4,Linux x86_64,59.88023952,,,,,,,,,,,,,,,,,,,,,427.237,427.4343,427.4344,427.9342,,,,,,,,,,,,,,0.0745,0,,,,,,,,,,,,,,z,,,,,,,,,,,,,,,82,1,427.9362,428.0176,m,0,0.0745,,[],[],[],[],[],[],[],428.0177,430.0175,430.0176,430.0506,[],[],[],[],[],[],[],z,430.0508,430.0511,-0.047578399,-0.448411119,0,0,0,,0,81,81,37,1,1,RL,skofen,print,skofen_p.png,0.0261,,,,
,,,,32385,001,2025-12-02_12h31.18.109,HW_LDT_1,2024.2.4,Linux x86_64,59.88023952,,,,,,,,,,,,,,,,,,,,,430.0535,430.251,430.2511,430.7504,,,,,,,,,,,,,,0.0426,0,,,,,,,,,,,,,,z,,,,,,,,,,,,,,,83,0,430.7509,430.8009,m,0,0.0426,,[],[],[],[],[],[],[],430.8011,432.8006,432.8007,432.8011,[],[],[],[],[],[],[],,432.8012,432.8014,-0.047578399,-0.448411119,0,0,0,,0,82,82,53,1,1,TL,dentisy,cursive,dentisy_c.png,,,,,
,,,,32385,001,2025-12-02_12h31.18.109,HW_LDT_1,2024.2.4,Linux x86_64,59.88023952,,,,,,,,,,,,,,,,,,,,,432.8038,433.001,433.0011,433.5006,,,,,,,,,,,,,,0.2081,1,,,,,,,,,,,,,,m,,,,,,,,,,,,,,,84,1,433.5015,433.7175,m,1,0.2081,,[],[],[],[],[],[],[],433.7176,435.7172,435.7172,435.8171,[],[],[],[],[],[],[],m,435.8172,435.8174,-0.047578399,-0.448411119,0,0,0,,0,83,83,130,1,1,word,POLICY,cursive,policy_c.png,0.095,,,,
,,,,32385,001,2025-12-02_12h31.18.109,HW_LDT_1,2024.2.4,Linux x86_64,59.88023952,,,,,,,,,,,,,,,,,,,,,435.8199,436.0169,436.0169,436.5171,,,,,,,,,,,,,,0.0783,0,,,,,,,,,,,,,,z,,,,,,,,,,,,,,,85,0,436.5179,436.6004,m,0,0.0783,,[],[],[],[],[],[],[],436.6005,438.6001,438.6002,438.6006,[],[],[],[],[],[],[],,438.6007,438.6009,-0.047578399,-0.448411119,0,0,0,,0,84,84,33,1,1,RL,recile,cursive,recile_c.png,,,,,
,,,,32385,001,2025-12-02_12h31.18.109,HW_LDT_1,2024.2.4,Linux x86_64,59.88023952,,,,,,,,,,,,,,,,,,,,,438.6034,438.8001,438.8002,439.3001,,,,,,,,,,,,,,0.2402,0,,,,,,,,,,,,,,z,,,,,,,,,,,,,,,86,0,439.301,439.5499,m,0,0.2402,,[],[],[],[],[],[],[],439.55,441.5499,441.55,441.5512,[],[],[],[],[],[],[],,441.5513,441.5516,-0.047578399,-0.448411119,0,0,0,,0,85,85,48,1,1,TL,cemerony,cursive,cemerony_c.png,,,,,
,,,,32385,001,2025-12-02_12h31.18.109,HW_LDT_1,2024.2.4,Linux x86_64,59.88023952,,,,,,,,,,,,,,,,,,,,,441.554,441.7499,441.75,442.2493,,,,,,,,,,,,,,0.2473,1,,,,,,,,,,,,,,m,,,,,,,,,,,,,,,87,0,442.2499,442.4997,m,1,0.2473,,[],[],[],[],[],[],[],442.4999,444.5001,444.5002,444.5006,[],[],[],[],[],[],[],,444.5006,444.5009,-0.047578399,-0.448411119,0,0,0,,0,86,86,91,1,1,word,CARDINAL,print,cardinal_p.png,,,,,
,,,,32385,001,2025-12-02_12h31.18.109,HW_LDT_1,2024.2.4,Linux x86_64,59.88023952,,,,,,,,,,,,,,,,,,,,,444.5032,444.6999,444.7001,445.2,,,,,,,,,,,,,,0.0727,1,,,,,,,,,,,,,,z,,,,,,,,,,,,,,,88,0,445.2009,445.2831,z,1,0.0727,,[],[],[],[],[],[],[],445.2838,447.2833,447.2833,447.2845,[],[],[],[],[],[],[],,447.2846,447.2849,-0.047578399,-0.448411119,0,0,0,,0,87,87,34,1,1,RL,samite,print,samite_p.png,,,,,
,,,,32385,001,2025-12-02_12h31.18.109,HW_LDT_1,2024.2.4,Linux x86_64,59.88023952,,,,,,,,,,,,,,,,,,,,,447.2872,447.4832,447.4833,447.9832,,,,,,,,,,,,,,0.1111,1,,,,,,,,,,,,,,z,,,,,,,,,,,,,,,89,1,447.9841,448.0998,z,1,0.1111,,[],[],[],[],[],[],[],448.1,450.0998,450.0999,450.3832,[],[],[],[],[],[],[],z,450.3834,450.3836,-0.047578399,-0.448411119,0,0,0,,0,88,88,51,1,1,TL,corevage,print,corevage_p.png,0.2785,,,,
,,,,32385,001,2025-12-02_12h31.18.109,HW_LDT_1,2024.2.4,Linux x86_64,59.88023952,,,,,,,,,,,,,,,,,,,,,450.3858,450.5829,450.5831,451.0829,,,,,,,,,,,,,,0.064,1,,,,,,,,,,,,,,z,,,,,,,,,,,,,,,90,0,451.0833,451.1497,z,1,0.064,,[],[],[],[],[],[],[],451.1498,453.1496,453.1496,453.15,[],[],[],[],[],[],[],,453.1501,453.1505,-0.047578399,-0.448411119,0,0,0,,0,89,89,20,1,1,RL,nunewical,print,nunewical_p.png,,,,,
,,,,32385,001,2025-12-02_12h31.18.109,HW_LDT_1,2024.2.4,Linux x86_64,59.88023952,,,,,,,,,,,,,,,,,,,,,453.1528,453.3496,453.3497,453.8496,,,,,,,,,,,,,,0.2415,1,,,,,,,,,,,,,,m,,,,,,,,,,,,,,,91,0,453.8501,454.0996,m,1,0.2415,,[],[],[],[],[],[],[],454.0997,456.0991,456.0992,456.0994,[],[],[],[],[],[],[],,456.0994,456.0996,-0.047578399,-0.448411119,0,0,0,,0,90,90,101,1,1,word,DELICATE,cursive,delicate_c.png,,,,,
,,,,32385,001,2025-12-02_12h31.18.109,HW_LDT_1,2024.2.4,Linux x86_64,59.88023952,,,,,,,,,,,,,,,,,,,,,456.1008,456.2995,456.2995,456.7993,,,,,,,,,,,,,,0.3277,1,,,,,,,,,,,,,,m,,,,,,,,,,,,,,,92,0,456.8003,457.1328,m,1,0.3277,,[],[],[],[],[],[],[],457.133,459.1326,459.1326,459.1331,[],[],[],[],[],[],[],,459.1332,459.1334,-0.047578399,-0.448411119,0,0,0,,0,91,91,143,1,1,word,REMOVAL,cursive,removal_c.png,,,,,
,,,,32385,001,2025-12-02_12h31.18.109,HW_LDT_1,2024.2.4,Linux x86_64,59.88023952,,,,,,,,,,,,,,,,,,,,,459.1357,459.3326,459.3327,459.8326,,,,,,,,,,,,,,0.0929,0,,,,,,,,,,,,,,z,,,,,,,,,,,,,,,93,0,459.8335,459.9327,m,0,0.0929,,[],[],[],[],[],[],[],459.9327,461.9324,461.9324,461.9328,[],[],[],[],[],[],[],,461.933,461.9333,-0.047578399,-0.448411119,0,0,0,,0,92,92,62,1,1,TL,mitilary,print,mitilary_p.png,,,,,
,,,,32385,001,2025-12-02_12h31.18.109,HW_LDT_1,2024.2.4,Linux x86_64,59.88023952,,,,,,,,,,,,,,,,,,,,,461.9355,462.1328,462.1328,462.6323,,,,,,,,,,,,,,0.1443,0,,,,,,,,,,,,,,z,,,,,,,,,,,,,,,94,0,462.6336,462.7821,m,0,0.1443,,[],[],[],[],[],[],[],462.7822,464.7822,464.7823,464.7833,[],[],[],[],[],[],[],,464.7834,464.7836,-0.047578399,-0.448411119,0,0,0,,0,93,93,16,1,1,RL,marmipal,print,marmipal_p.png,,,,,
,,,,32385,001,2025-12-02_12h31.18.109,HW_LDT_1,2024.2.4,Linux x86_64,59.88023952,,,,,,,,,,,,,,,,,,,,,464.7861,464.9822,464.9823,465.482,,,,,,,,,,,,,,0.0569,1,,,,,,,,,,,,,,m,,,,,,,,,,,,,,,95,0,465.4829,465.5486,m,1,0.0569,,[],[],[],[],[],[],[],465.5486,467.5486,467.5486,467.5489,[],[],[],[],[],[],[],,467.5489,467.5492,-0.047578399,-0.448411119,0,0,0,,0,94,94,92,1,1,word,CATEGORY,print,category_p.png,,,,,
,,,,32385,001,2025-12-02_12h31.18.109,HW_LDT_1,2024.2.4,Linux x86_64,59.88023952,,,,,,,,,,,,,,,,,,,,,467.5511,467.7484,467.7485,468.2484,,,,,,,,,,,,,,0.1595,1,,,,,,,,,,,,,,z,,,,,,,,,,,,,,,96,0,468.2493,468.4154,z,1,0.1595,,[],[],[],[],[],[],[],468.4156,470.4153,470.4154,470.4158,[],[],[],[],[],[],[],,470.4158,470.4164,-0.047578399,-0.448411119,0,0,0,,0,95,95,69,1,1,TL,radiply,cursive,radiply_c.png,,,,,
,,,,32385,001,2025-12-02_12h31.18.109,HW_LDT_1,2024.2.4,Linux x86_64,59.88023952,,,,,,,,,,,,,,,,,,,,,470.4187,470.6152,470.6153,471.1152,,,,,,,,,,,,,,0.2602,1,,,,,,,,,,,,,,z,,,,,,,,,,,,,,,97,0,471.1162,471.382,z,1,0.2602,,[],[],[],[],[],[],[],471.3821,473.3815,473.3816,473.3819,[],[],[],[],[],[],[],,473.382,473.3822,-0.047578399,-0.448411119,0,0,0,,0,96,96,76,1,1,TL,stragety,cursive,stragety_c.png,,,,,
,,,,32385,001,2025-12-02_12h31.18.109,HW_LDT_1,2024.2.4,Linux x86_64,59.88023952,,,,,,,,,,,,,,,,,,,,,473.3846,473.5814,473.5815,474.0815,,,,,,,,,,,,,,0.1951,1,,,,,,,,,,,,,,z,,,,,,,,,,,,,,,98,0,474.0825,474.2815,z,1,0.1951,,[],[],[],[],[],[],[],474.2817,476.2813,476.2814,476.2819,[],[],[],[],[],[],[],,476.2819,476.2822,-0.047578399,-0.448411119,0,0,0,,0,97,97,40,1,1,TL,atameur,print,atameur_p.png,,,,,
,,,,32385,001,2025-12-02_12h31.18.109,HW_LDT_1,2024.2.4,Linux x86_64,59.88023952,,,,,,,,,,,,,,,,,,,,,476.2845,476.4811,476.4812,476.9816,,,,,,,,,,,,,,1.1142,1,,,,,,,,,,,,,,m,,,,,,,,,,,,,,,99,0,476.9825,478.0979,m,1,1.1142,,[],[],[],[],[],[],[],478.098,480.0978,480.0978,480.098,[],[],[],[],[],[],[],,480.098,480.0981,-0.047578399,-0.448411119,0,0,0,,0,98,98,148,1,1,word,SALINE,print,saline_p.png,,,,,
,,,,32385,001,2025-12-02_12h31.18.109,HW_LDT_1,2024.2.4,Linux x86_64,59.88023952,,,,,,,,,,,,,,,,,,,,,480.0993,480.2981,480.2982,480.7981,,,,,,,,,,,,,,0.0464,1,,,,,,,,,,,,,,m,,,,,,,,,,,,,,,100,0,480.799,480.8481,m,1,0.0464,,[],[],[],[],[],[],[],480.8483,482.8479,482.8479,482.8483,[],[],[],[],[],[],[],,482.8484,482.8486,-0.047578399,-0.448411119,0,0,0,,0,99,99,87,1,1,word,CAFETERIA,cursive,cafeteria_c.png,,,,,
,,,,32385,001,2025-12-02_12h31.18.109,HW_LDT_1,2024.2.4,Linux x86_64,59.88023952,,,,,,,,,,,,,,,,,,,,,482.8506,483.0478,483.048,483.5478,,,,,,,,,,,,,,0.1308,0,,,,,,,,,,,,,,z,,,,,,,,,,,,,,,101,0,483.5487,483.6806,m,0,0.1308,,[],[],[],[],[],[],[],483.6807,485.6808,485.681,485.6811,[],[],[],[],[],[],[],,485.6811,485.6813,-0.047578399,-0.448411119,0,0,0,,0,100,100,72,1,1,TL,remuse,print,remuse_p.png,,,,,
,,,,32385,001,2025-12-02_12h31.18.109,HW_LDT_1,2024.2.4,Linux x86_64,59.88023952,,,,,,,,,,,,,,,,,,,,,485.6824,485.8808,485.8808,486.381,,,,,,,,,,,,,,0.2268,0,,,,,,,,,,,,,,z,,,,,,,,,,,,,,,102,0,486.3819,486.6145,m,0,0.2268,,[],[],[],[],[],[],[],486.6147,488.6143,488.6144,488.6148,[],[],[],[],[],[],[],,488.6149,488.6151,-0.047578399,-0.448411119,0,0,0,,0,101,101,65,1,1,TL,orinigal,cursive,orinigal_c.png,,,,,
,,,,32385,001,2025-12-02_12h31.18.109,HW_LDT_1,2024.2.4,Linux x86_64,59.88023952,,,,,,,,,,,,,,,,,,,,,488.6175,488.8148,488.8149,489.3142,,,,,,,,,,,,,,0.191,1,,,,,,,,,,,,,,m,,,,,,,,,,,,,,,103,0,489.3152,489.5144,m,1,0.191,,[],[],[],[],[],[],[],489.5146,491.5141,491.5142,491.5147,[],[],[],[],[],[],[],,491.5148,491.515,-0.047578399,-0.448411119,0,0,0,,0,102,102,93,1,1,word,CEREMONY,cursive,ceremony_c.png,,,,,
,,,,32385,001,2025-12-02_12h31.18.109,HW_LDT_1,2024.2.4,Linux x86_64,59.88023952,,,,,,,,,,,,,,,,,,,,,491.5174,491.7142,491.7143,492.2142,,,,,,,,,,,,,,0.0482,0,,,,,,,,,,,,,,z,,,,,,,,,,,,,,,104,0,492.215,492.2643,m,0,0.0482,,[],[],[],[],[],[],[],492.2645,494.2641,494.2642,494.2646,[],[],[],[],[],[],[],,494.2647,494.2649,-0.047578399,-0.448411119,0,0,0,,0,103,103,9,1,1,RL,docirant,cursive,docirant_c.png,,,,,
,,,,32385,001,2025-12-02_12h31.18.109,HW_LDT_1,2024.2.4,Linux x86_64,59.88023952,,,,,,,,,,,,,,,,,,,,,494.2673,494.4641,494.4641,494.9639,,,,,,,,,,,,,,0.0311,1,,,,,,,,,,,,,,m,,,,,,,,,,,,,,,105,0,494.965,494.9974,m,1,0.0311,,[],[],[],[],[],[],[],494.9976,496.9969,496.997,496.9974,[],[],[],[],[],[],[],,496.9975,496.9977,-0.047578399,-0.448411119,0,0,0,,0,104,104,118,1,1,word,MEDICINE,cursive,medicine_c.png,,,,,
,,,,32385,001,2025-12-02_12h31.18.109,HW_LDT_1,2024.2.4,Linux x86_64,59.88023952,,,,,,,,,,,,,,,,,,,,,497.0001,497.1969,497.1969,497.6971,,,,,,,,,,,,,,0.2266,1,,,,,,,,,,,,,,m,,,,,,,,,,,,,,,106,0,497.698,497.9302,m,1,0.2266,,[],[],[],[],[],[],[],497.9302,499.9304,499.9306,499.9318,[],[],[],[],[],[],[],,499.9318,499.9322,-0.047578399,-0.448411119,0,0,0,,0,105,105,154,1,1,word,STORAGE,cursive,storage_c.png,,,,,
,,,,32385,001,2025-12-02_12h31.18.109,HW_LDT_1,2024.2.4,Linux x86_64,59.88023952,,,,,,,,,,,,,,,,,,,,,499.9346,500.1301,500.1301,500.6303,,,,,,,,,,,,,,0.398,0,,,,,,,,,,,,,,m,,,,,,,,,,,,,,,107,0,500.631,501.0306,z,0,0.398,,[],[],[],[],[],[],[],501.0307,503.0301,503.0301,503.0307,[],[],[],[],[],[],[],,503.0308,503.031,-0.047578399,-0.448411119,0,0,0,,0,106,106,145,1,1,word,RESUME,print,resume_p.png,,,,,
,,,,32385,001,2025-12-02_12h31.18.109,HW_LDT_1,2024.2.4,Linux x86_64,59.88023952,,,,,,,,,,,,,,,,,,,,,503.0336,503.2301,503.2301,503.7302,,,,,,,,,,,,,,0.2927,1,,,,,,,,,,,,,,z,,,,,,,,,,,,,,,108,1,503.7311,504.0303,z,1,0.2927,,[],[],[],[],[],[],[],504.0304,506.0301,506.0301,507.2469,[],[],[],[],[],[],[],z,507.2471,507.2474,-0.047578399,-0.448411119,0,0,0,,0,107,107,74,1,1,TL,setanor,cursive,setanor_c.png,1.2093,,,,
,,,,32385,001,2025-12-02_12h31.18.109,HW_LDT_1,2024.2.4,Linux x86_64,59.88023952,,,,,,,,,,,,,,,,,,,,,507.2499,507.4466,507.4467,507.9466,,,,,,,,,,,,,,0.2432,1,,,,,,,,,,,,,,z,,,,,,,,,,,,,,,109,0,507.9476,508.1968,z,1,0.2432,,[],[],[],[],[],[],[],508.197,510.1964,510.1966,510.197,[],[],[],[],[],[],[],,510.1971,510.1973,-0.047578399,-0.448411119,0,0,0,,0,108,108,41,1,1,TL,bevoled,print,bevoled_p.png,,,,,
,,,,32385,001,2025-12-02_12h31.18.109,HW_LDT_1,2024.2.4,Linux x86_64,59.88023952,,,,,,,,,,,,,,,,,,,,,510.1996,510.3965,510.3966,510.8961,,,,,,,,,,,,,,0.1438,1,,,,,,,,,,,,,,z,,,,,,,,,,,,,,,110,0,510.8965,511.0469,z,1,0.1438,,[],[],[],[],[],[],[],511.047,513.0464,513.0465,513.0468,[],[],[],[],[],[],[],,513.047,513.0472,-0.047578399,-0.448411119,0,0,0,,0,109,109,66,1,1,TL,panert,cursive,panert_c.png,,,,,
,,,,32385,001,2025-12-02_12h31.18.109,HW_LDT_1,2024.2.4,Linux x86_64,59.88023952,,,,,,,,,,,,,,,,,,,,,513.0495,513.2463,513.2464,513.7462,,,,,,,,,,,,,,0.5438,0,,,,,,,,,,,,,,m,,,,,,,,,,,,,,,111,1,513.7472,514.2961,z,0,0.5438,,[],[],[],[],[],[],[],514.2962,516.3049,516.305,516.3631,[],[],[],[],[],[],[],z,516.3632,516.3635,-0.047578399,-0.448411119,0,0,0,,0,110,110,139,1,1,word,REGULAR,print,regular_p.png,0.0509,,,,
,,,,32385,001,2025-12-02_12h31.18.109,HW_LDT_1,2024.2.4,Linux x86_64,59.88023952,,,,,,,,,,,,,,,,,,,,,516.3658,516.5628,516.5628,517.056,,,,,,,,,,,,,,0.0361,1,,,,,,,,,,,,,,z,,,,,,,,,,,,,,,112,0,517.0569,517.096,z,1,0.0361,,[],[],[],[],[],[],[],517.0961,519.0959,519.096,519.0964,[],[],[],[],[],[],[],,519.0965,519.0968,-0.047578399,-0.448411119,0,0,0,,0,111,111,68,1,1,TL,prosopal,cursive,prosopal_c.png,,,,,
,,,,32385,001,2025-12-02_12h31.18.109,HW_LDT_1,2024.2.4,Linux x86_64,59.88023952,,,,,,,,,,,,,,,,,,,,,519.0992,519.2963,519.2963,519.796,,,,,,,,,,,,,,0.0634,0,,,,,,,,,,,,,,m,,,,,,,,,,,,,,,113,0,519.7968,519.8621,z,0,0.0634,,[],[],[],[],[],[],[],519.8623,521.8622,521.8623,521.8624,[],[],[],[],[],[],[],,521.8625,521.8625,-0.047578399,-0.448411119,0,0,0,,0,112,112,96,1,1,word,CONSIDER,cursive,consider_c.png,,,,,
,,,,32385,001,2025-12-02_12h31.18.109,HW_LDT_1,2024.2.4,Linux x86_64,59.88023952,,,,,,,,,,,,,,,,,,,,,521.8637,522.0624,522.0625,522.5624,,,,,,,,,,,,,,0.092,1,,,,,,,,,,,,,,z,,,,,,,,,,,,,,,114,0,522.5634,522.6621,z,1,0.092,,[],[],[],[],[],[],[],522.6621,524.6623,524.6624,524.6628,[],[],[],[],[],[],[],,524.6629,524.6631,-0.047578399,-0.448411119,0,0,0,,0,113,113,2,1,1,RL,asiral,print,asiral_p.png,,,,,
,,,,32385,001,2025-12-02_12h31.18.109,HW_LDT_1,2024.2.4,Linux x86_64,59.88023952,,,,,,,,,,,,,,,,,,,,,524.6655,524.8622,524.8623,525.3623,,,,,,,,,,,,,,0.2771,0,,,,,,,,,,,,,,m,,,,,,,,,,,,,,,115,0,525.3632,525.6453,z,0,0.2771,,[],[],[],[],[],[],[],525.6454,527.6456,527.6456,527.6461,[],[],[],[],[],[],[],,527.6461,527.6464,-0.047578399,-0.448411119,0,0,0,,0,114,114,129,1,1,word,PARENT,cursive,parent_c.png,,,,,
,,,,32385,001,2025-12-02_12h31.18.109,HW_LDT_1,2024.2.4,Linux x86_64,59.88023952,,,,,,,,,,,,,,,,,,,,,527.6487,527.8455,527.8456,528.3455,,,,,,,,,,,,,,0.3065,1,,,,,,,,,,,,,,z,,,,,,,,,,,,,,,116,0,528.3464,528.6622,z,1,0.3065,,[],[],[],[],[],[],[],528.6624,530.6621,530.6621,530.6625,[],[],[],[],[],[],[],,530.6626,530.6628,-0.047578399,-0.448411119,0,0,0,,0,115,115,24,1,1,RL,probice,print,probice_p.png,,,,,
,,,,32385,001,2025-12-02_12h31.18.109,HW_LDT_1,2024.2.4,Linux x86_64,59.88023952,,,,,,,,,,,,,,,,,,,,,530.6666,530.8619,530.862,531.3619,,,,,,,,,,,,,,4.2945,1,,,,,,,,,,,,,,z,,,,,,,,,,,,,,,117,0,531.3628,535.6619,z,1,4.2945,,[],[],[],[],[],[],[],535.6621,537.6617,537.6617,537.6622,[],[],[],[],[],[],[],,537.6623,537.6625,-0.047578399,-0.448411119,0,0,0,,0,116,116,12,1,1,RL,ebiwent,print,ebiwent_p.png,,,,,
,,,,32385,001,2025-12-02_12h31.18.109,HW_LDT_1,2024.2.4,Linux x86_64,59.88023952,,,,,,,,,,,,,,,,,,,,,537.6648,537.8616,537.8617,538.3617,,,,,,,,,,,,,,4.0643,1,,,,,,,,,,,,,,z,,,,,,,,,,,,,,,118,0,538.3625,542.4283,z,1,4.0643,,[],[],[],[],[],[],[],542.4285,544.428,544.428,544.4285,[],[],[],[],[],[],[],,544.4285,544.4287,-0.047578399,-0.448411119,0,0,0,,0,117,117,54,1,1,TL,distupe,cursive,distupe_c.png,,,,,
,,,,32385,001,2025-12-02_12h31.18.109,HW_LDT_1,2024.2.4,Linux x86_64,59.88023952,,,,,,,,,,,,,,,,,,,,,544.4311,544.628,544.6281,545.1279,,,,,,,,,,,,,,0.0783,0,,,,,,,,,,,,,,m,,,,,,,,,,,,,,,119,0,545.1288,545.211,z,0,0.0783,,[],[],[],[],[],[],[],545.2111,547.2111,547.2111,547.2116,[],[],[],[],[],[],[],,547.2116,547.2118,-0.047578399,-0.448411119,0,0,0,,0,118,118,147,1,1,word,ROMANTIC,cursive,romantic_c.png,,,,,
,,,,32385,001,2025-12-02_12h31.18.109,HW_LDT_1,2024.2.4,Linux x86_64,59.88023952,,,,,,,,,,,,,,,,,,,,,547.2141,547.4113,547.4114,547.9111,,,,,,,,,,,,,,1.3762,0,,,,,,,,,,,,,,m,,,,,,,,,,,,,,,120,0,547.9121,549.2948,z,0,1.3762,,[],[],[],[],[],[],[],549.2949,551.2942,551.2943,551.2947,[],[],[],[],[],[],[],,551.2948,551.295,-0.047578399,-0.448411119,0,0,0,,0,119,119,107,1,1,word,EVIDENT,print,evident_p.png,,,,,
,,,,32385,001,2025-12-02_12h31.18.109,HW_LDT_1,2024.2.4,Linux x86_64,59.88023952,,,,,,,,,,,,,,,,,,,,,551.2973,551.4941,551.4943,551.9939,,,,,,,,,,,,,,0.5087,1,,,,,,,,,,,,,,z,,,,,,,,,,,,,,,121,0,551.9944,552.511,z,1,0.5087,,[],[],[],[],[],[],[],552.5111,554.5107,554.5108,554.5112,[],[],[],[],[],[],[],,554.5113,554.5115,-0.047578399,-0.448411119,0,0,0,,0,120,120,6,1,1,RL,crisival,print,crisival_p.png,,,,,
,,,,32385,001,2025-12-02_12h31.18.109,HW_LDT_1,2024.2.4,Linux x86_64,59.88023952,,,,,,,,,,,,,,,,,,,,,554.5138,554.7107,554.7107,555.2105,,,,,,,,,,,,,,0.8923,1,,,,,,,,,,,,,,z,,,,,,,,,,,,,,,122,0,555.211,556.1108,z,1,0.8923,,[],[],[],[],[],[],[],556.1109,558.1105,558.1107,558.111,[],[],[],[],[],[],[],,558.1111,558.1114,-0.047578399,-0.448411119,0,0,0,,0,121,121,5,1,1,RL,cobeny,cursive,cobeny_c.png,,,,,
,,,,32385,001,2025-12-02_12h31.18.109,HW_LDT_1,2024.2.4,Linux x86_64,59.88023952,,,,,,,,,,,,,,,,,,,,,558.1138,558.3106,558.3107,558.8108,,,,,,,,,,,,,,3.1239,1,,,,,,,,,,,,,,z,,,,,,,,,,,,,,,123,0,558.8117,561.9438,z,1,3.1239,,[],[],[],[],[],[],[],561.9439,563.9435,563.9436,563.944,[],[],[],[],[],[],[],,563.9441,563.9443,-0.047578399,-0.448411119,0,0,0,,0,122,122,38,1,1,RL,stopave,cursive,stopave_c.png,,,,,
,,,,32385,001,2025-12-02_12h31.18.109,HW_LDT_1,2024.2.4,Linux x86_64,59.88023952,,,,,,,,,,,,,,,,,,,,,563.9469,564.1437,564.1438,564.6435,,,,,,,,,,,,,,0.291,1,,,,,,,,,,,,,,z,,,,,,,,,,,,,,,124,1,564.6445,564.9437,z,1,0.291,,[],[],[],[],[],[],[],564.9438,566.9434,566.9434,567.3929,[],[],[],[],[],[],[],z,567.3929,567.3931,-0.047578399,-0.448411119,0,0,0,,0,123,123,0,1,1,RL,abanemy,cursive,abanemy_c.png,0.4468,,,,
,,,,32385,001,2025-12-02_12h31.18.109,HW_LDT_1,2024.2.4,Linux x86_64,59.88023952,,,,,,,,,,,,,,,,,,,,,567.3942,567.5931,567.5931,568.093,,,,,,,,,,,,,,0.0144,1,,,,,,,,,,,,,,z,,,,,,,,,,,,,,,125,0,568.094,568.1095,z,1,0.0144,,[],[],[],[],[],[],[],568.1096,570.11,570.11,570.1107,[],[],[],[],[],[],[],,570.1109,570.1111,-0.047578399,-0.448411119,0,0,0,,0,124,124,35,1,1,RL,senvilent,cursive,senvilent_c.png,,,,,
,,,,32385,001,2025-12-02_12h31.18.109,HW_LDT_1,2024.2.4,Linux x86_64,59.88023952,,,,,,,,,,,,,,,,,,,,,570.1138,570.3098,570.31,570.8097,,,,,,,,,,,,,,5.3925,1,,,,,,,,,,,,,,z,,,,,,,,,,,,,,,126,0,570.8107,576.2095,z,1,5.3925,,[],[],[],[],[],[],[],576.2096,578.2094,578.2095,578.2099,[],[],[],[],[],[],[],,578.21,578.2102,-0.047578399,-0.448411119,0,0,0,,0,125,125,21,1,1,RL,opcifal,print,opcifal_p.png,,,,,
,,,,32385,001,2025-12-02_12h31.18.109,HW_LDT_1,2024.2.4,Linux x86_64,59.88023952,,,,,,,,,,,,,,,,,,,,,578.2126,578.4095,578.4096,578.9095,,,,,,,,,,,,,,0.4481,1,,,,,,,,,,,,,,z,,,,,,,,,,,,,,,127,0,578.9103,579.3601,z,1,0.4481,,[],[],[],[],[],[],[],579.3603,581.3589,581.3589,581.3592,[],[],[],[],[],[],[],,581.3593,581.3594,-0.047578399,-0.448411119,0,0,0,,0,126,126,14,1,1,RL,lofase,print,lofase_p.png,,,,,
,,,,32385,001,2025-12-02_12h31.18.109,HW_LDT_1,2024.2.4,Linux x86_64,59.88023952,,,,,,,,,,,,,,,,,,,,,581.3612,581.5594,581.5595,582.0588,,,,,,,,,,,,,,0.4094,0,,,,,,,,,,,,,,m,,,,,,,,,,,,,,,128,0,582.0593,582.4756,z,0,0.4094,,[],[],[],[],[],[],[],582.4757,584.4758,584.4759,584.4763,[],[],[],[],[],[],[],,584.4764,584.4767,-0.047578399,-0.448411119,0,0,0,,0,127,127,159,1,1,word,VETERAN,print,veteran_p.png,,,,,
,,,,32385,001,2025-12-02_12h31.18.109,HW_LDT_1,2024.2.4,Linux x86_64,59.88023952,,,,,,,,,,,,,,,,,,,,,584.4789,584.6757,584.6758,585.1758,,,,,,,,,,,,,,0.1577,0,,,,,,,,,,,,,,m,,,,,,,,,,,,,,,129,1,585.1767,585.3425,z,0,0.1577,,[],[],[],[],[],[],[],585.3425,587.3423,587.3425,587.693,[],[],[],[],[],[],[],z,587.6932,587.6946,-0.047578399,-0.448411119,0,0,0,,0,128,128,155,1,1,word,STRATEGY,cursive,strategy_c.png,0.3493,,,,
,,,,32385,001,2025-12-02_12h31.18.109,HW_LDT_1,2024.2.4,Linux x86_64,59.88023952,,,,,,,,,,,,,,,,,,,,,587.6981,587.8919,587.8919,588.3924,,,,,,,,,,,,,,0.5776,1,,,,,,,,,,,,,,z,,,,,,,,,,,,,,,130,0,588.3932,588.9754,z,1,0.5776,,[],[],[],[],[],[],[],588.9755,590.9754,590.9755,590.9759,[],[],[],[],[],[],[],,590.976,590.9763,-0.047578399,-0.448411119,0,0,0,,0,129,129,15,1,1,RL,losipal,cursive,losipal_c.png,,,,,
,,,,32385,001,2025-12-02_12h31.18.109,HW_LDT_1,2024.2.4,Linux x86_64,59.88023952,,,,,,,,,,,,,,,,,,,,,590.9785,591.1751,591.1752,591.6753,,,,,,,,,,,,,,3.8929,0,,,,,,,,,,,,,,m,,,,,,,,,,,,,,,131,0,591.6763,595.5752,z,0,3.8929,,[],[],[],[],[],[],[],595.5757,597.5751,597.5751,597.5755,[],[],[],[],[],[],[],,597.5756,597.5758,-0.047578399,-0.448411119,0,0,0,,0,130,130,99,1,1,word,DEBATE,print,debate_p.png,,,,,
,,,,32385,001,2025-12-02_12h31.18.109,HW_LDT_1,2024.2.4,Linux x86_64,59.88023952,,,,,,,,,,,,,,,,,,,,,597.5782,597.7751,597.7751,598.2749,,,,,,,,,,,,,,0.1597,1,,,,,,,,,,,,,,z,,,,,,,,,,,,,,,132,0,598.276,598.442,z,1,0.1597,,[],[],[],[],[],[],[],598.4422,600.4414,600.4415,600.4416,[],[],[],[],[],[],[],,600.4416,600.4417,-0.047578399,-0.448411119,0,0,0,,0,131,131,42,1,1,TL,befenit,print,befenit_p.png,,,,,
,,,,32385,001,2025-12-02_12h31.18.109,HW_LDT_1,2024.2.4,Linux x86_64,59.88023952,,,,,,,,,,,,,,,,,,,,,600.4429,600.6415,600.6416,601.1414,,,,,,,,,,,,,,2.2756,0,,,,,,,,,,,,,,m,,,,,,,,,,,,,,,133,0,601.1419,603.4248,z,0,2.2756,,[],[],[],[],[],[],[],603.425,605.4246,605.4247,605.4251,[],[],[],[],[],[],[],,605.4252,605.4255,-0.047578399,-0.448411119,0,0,0,,0,132,132,90,1,1,word,CAPITAL,print,capital_p.png,,,,,
,,,,32385,001,2025-12-02_12h31.18.109,HW_LDT_1,2024.2.4,Linux x86_64,59.88023952,,,,,,,,,,,,,,,,,,,,,605.4278,605.6244,605.6245,606.1246,,,,,,,,,,,,,,0.3432,1,,,,,,,,,,,,,,z,,,,,,,,,,,,,,,134,0,606.1254,606.4745,z,1,0.3432,,[],[],[],[],[],[],[],606.4746,608.4744,608.4745,608.4749,[],[],[],[],[],[],[],,608.475,608.4752,-0.047578399,-0.448411119,0,0,0,,0,133,133,4,1,1,RL,carminal,print,carminal_p.png,,,,,
,,,,32385,001,2025-12-02_12h31.18.109,HW_LDT_1,2024.2.4,Linux x86_64,59.88023952,,,,,,,,,,,,,,,,,,,,,608.4775,608.6748,608.6749,609.1744,,,,,,,,,,,,,,1.6626,0,,,,,,,,,,,,,,m,,,,,,,,,,,,,,,135,1,609.1754,610.8405,z,0,1.6626,,[],[],[],[],[],[],[],610.8406,612.8406,612.8407,613.6744,[],[],[],[],[],[],[],z,613.6745,613.6748,-0.047578399,-0.448411119,0,0,0,,0,134,134,132,1,1,word,PROPOSAL,cursive,proposal_c.png,0.8266,,,,
,,,,32385,001,2025-12-02_12h31.18.109,HW_LDT_1,2024.2.4,Linux x86_64,59.88023952,,,,,,,,,,,,,,,,,,,,,613.6771,613.8737,613.8738,614.3741,,,,,,,,,,,,,,1.0896,0,,,,,,,,,,,,,,m,,,,,,,,,,,,,,,136,0,614.375,615.4742,z,0,1.0896,,[],[],[],[],[],[],[],615.4743,617.4737,617.4738,617.4743,[],[],[],[],[],[],[],,617.4743,617.4745,-0.047578399,-0.448411119,0,0,0,,0,135,135,137,1,1,word,RAPIDLY,cursive,rapidly_c.png,,,,,
,,,,32385,001,2025-12-02_12h31.18.109,HW_LDT_1,2024.2.4,Linux x86_64,59.88023952,,,,,,,,,,,,,,,,,,,,,617.477,617.6738,617.6738,618.1739,,,,,,,,,,,,,,1.0143,0,,,,,,,,,,,,,,m,,,,,,,,,,,,,,,137,0,618.1747,619.1905,z,0,1.0143,,[],[],[],[],[],[],[],619.1907,621.1904,621.1905,621.191,[],[],[],[],[],[],[],,621.191,621.1913,-0.047578399,-0.448411119,0,0,0,,0,136,136,138,1,1,word,REFUSAL,print,refusal_p.png,,,,,
,,,,32385,001,2025-12-02_12h31.18.109,HW_LDT_1,2024.2.4,Linux x86_64,59.88023952,,,,,,,,,,,,,,,,,,,,,621.1934,621.3906,621.3907,621.8909,,,,,,,,,,,,,,0.3734,0,,,,,,,,,,,,,,m,,,,,,,,,,,,,,,138,0,621.8917,622.2737,z,0,0.3734,,[],[],[],[],[],[],[],622.2739,624.2733,624.2734,624.2737,[],[],[],[],[],[],[],,624.2738,624.274,-0.047578399,-0.448411119,0,0,0,,0,137,137,158,1,1,word,VELOCITY,print,velocity_p.png,,,,,
,,,,32385,001,2025-12-02_12h31.18.109,HW_LDT_1,2024.2.4,Linux x86_64,59.88023952,,,,,,,,,,,,,,,,,,,,,624.2757,624.4736,624.4736,624.9733,,,,,,,,,,,,,,0.2963,1,,,,,,,,,,,,,,z,,,,,,,,,,,,,,,139,0,624.9739,625.2734,z,1,0.2963,,[],[],[],[],[],[],[],625.2734,627.2735,627.2735,627.2739,[],[],[],[],[],[],[],,627.274,627.2743,-0.047578399,-0.448411119,0,0,0,,0,138,138,22,1,1,RL,patisic,print,patisic_p.png,,,,,
,,,,32385,001,2025-12-02_12h31.18.109,HW_LDT_1,2024.2.4,Linux x86_64,59.88023952,,,,,,,,,,,,,,,,,,,,,627.2766,627.4735,627.4736,627.9733,,,,,,,,,,,,,,0.9979,1,,,,,,,,,,,,,,z,,,,,,,,,,,,,,,140,0,627.9742,628.9733,z,1,0.9979,,[],[],[],[],[],[],[],628.9735,630.9732,630.9733,630.9738,[],[],[],[],[],[],[],,630.9738,630.974,-0.047578399,-0.448411119,0,0,0,,0,139,139,67,1,1,TL,pocily,cursive,pocily_c.png,,,,,
,,,,32385,001,2025-12-02_12h31.18.109,HW_LDT_1,2024.2.4,Linux x86_64,59.88023952,,,,,,,,,,,,,,,,,,,,,630.9764,631.1732,631.1733,631.6728,,,,,,,,,,,,,,0.2258,0,,,,,,,,,,,,,,m,,,,,,,,,,,,,,,141,0,631.6732,631.9065,z,0,0.2258,,[],[],[],[],[],[],[],631.9067,633.9063,633.9065,633.9068,[],[],[],[],[],[],[],,633.9069,633.9072,-0.047578399,-0.448411119,0,0,0,,0,140,140,110,1,1,word,HERITAGE,cursive,heritage_c.png,,,,,
,,,,32385,001,2025-12-02_12h31.18.109,HW_LDT_1,2024.2.4,Linux x86_64,59.88023952,,,,,,,,,,,,,,,,,,,,,633.9095,634.1064,634.1065,634.6063,,,,,,,,,,,,,,0.3583,0,,,,,,,,,,,,,,m,,,,,,,,,,,,,,,142,0,634.6073,634.9732,z,0,0.3583,,[],[],[],[],[],[],[],634.9733,636.9731,636.9732,636.9737,[],[],[],[],[],[],[],,636.9737,636.9739,-0.047578399,-0.448411119,0,0,0,,0,141,141,141,1,1,word,RELIGION,cursive,religion_c.png,,,,,
,,,,32385,001,2025-12-02_12h31.18.109,HW_LDT_1,2024.2.4,Linux x86_64,59.88023952,,,,,,,,,,,,,,,,,,,,,636.9766,637.1735,637.1736,637.6734,,,,,,,,,,,,,,0.3257,1,,,,,,,,,,,,,,z,,,,,,,,,,,,,,,143,0,637.6744,638.0067,z,1,0.3257,,[],[],[],[],[],[],[],638.0068,640.0065,640.0066,640.0069,[],[],[],[],[],[],[],,640.0071,640.0074,-0.047578399,-0.448411119,0,0,0,,0,142,142,30,1,1,RL,relone,print,relone_p.png,,,,,
,,,,32385,001,2025-12-02_12h31.18.109,HW_LDT_1,2024.2.4,Linux x86_64,59.88023952,,,,,,,,,,,,,,,,,,,,,640.0096,640.2068,640.2068,640.7067,,,,,,,,,,,,,,0.0152,0,,,,,,,,,,,,,,m,,,,,,,,,,,,,,,144,1,640.7076,640.7245,z,0,0.0152,,[],[],[],[],[],[],[],640.7246,642.7232,642.7233,642.7402,[],[],[],[],[],[],[],z,642.7403,642.7406,-0.047578399,-0.448411119,0,0,0,,0,143,143,144,1,1,word,RESIDENT,print,resident_p.png,0.012,,,,
,,,,32385,001,2025-12-02_12h31.18.109,HW_LDT_1,2024.2.4,Linux x86_64,59.88023952,,,,,,,,,,,,,,,,,,,,,642.743,642.9394,642.9394,643.4394,,,,,,,,,,,,,,0.3921,0,,,,,,,,,,,,,,m,,,,,,,,,,,,,,,145,0,643.4404,643.8389,z,0,0.3921,,[],[],[],[],[],[],[],643.839,645.8392,645.8392,645.8396,[],[],[],[],[],[],[],,645.8397,645.84,-0.047578399,-0.448411119,0,0,0,,0,144,144,108,1,1,word,FORTUNE,print,fortune_p.png,,,,,
,,,,32385,001,2025-12-02_12h31.18.109,HW_LDT_1,2024.2.4,Linux x86_64,59.88023952,,,,,,,,,,,,,,,,,,,,,645.8423,646.039,646.0391,646.5391,,,,,,,,,,,,,,0.0131,0,,,,,,,,,,,,,,m,,,,,,,,,,,,,,,146,0,646.5401,646.5562,z,0,0.0131,,[],[],[],[],[],[],[],646.5563,648.5555,648.5556,648.5561,[],[],[],[],[],[],[],,648.5562,648.5564,-0.047578399,-0.448411119,0,0,0,,0,145,145,153,1,1,word,STOLEN,print,stolen_p.png,,,,,
,,,,32385,001,2025-12-02_12h31.18.109,HW_LDT_1,2024.2.4,Linux x86_64,59.88023952,,,,,,,,,,,,,,,,,,,,,648.5588,648.7557,648.7558,649.2555,,,,,,,,,,,,,,0.077,1,,,,,,,,,,,,,,z,,,,,,,,,,,,,,,147,0,649.2564,649.3391,z,1,0.077,,[],[],[],[],[],[],[],649.3392,651.3388,651.3389,651.3396,[],[],[],[],[],[],[],,651.3397,651.3399,-0.047578399,-0.448411119,0,0,0,,0,146,146,26,1,1,RL,quafidy,cursive,quafidy_c.png,,,,,
,,,,32385,001,2025-12-02_12h31.18.109,HW_LDT_1,2024.2.4,Linux x86_64,59.88023952,,,,,,,,,,,,,,,,,,,,,651.3414,651.5386,651.5386,652.0387,,,,,,,,,,,,,,0.3735,0,,,,,,,,,,,,,,m,,,,,,,,,,,,,,,148,0,652.0395,652.4218,z,0,0.3735,,[],[],[],[],[],[],[],652.4219,654.4219,654.4219,654.4222,[],[],[],[],[],[],[],,654.4222,654.4223,-0.047578399,-0.448411119,0,0,0,,0,147,147,146,1,1,word,RETIRE,cursive,retire_c.png,,,,,
,,,,32385,001,2025-12-02_12h31.18.109,HW_LDT_1,2024.2.4,Linux x86_64,59.88023952,,,,,,,,,,,,,,,,,,,,,654.4236,654.6217,654.6218,655.1219,,,,,,,,,,,,,,0.4465,0,,,,,,,,,,,,,,m,,,,,,,,,,,,,,,149,0,655.1228,655.5715,z,0,0.4465,,[],[],[],[],[],[],[],655.5716,657.5717,657.5718,657.5722,[],[],[],[],[],[],[],,657.5723,657.5726,-0.047578399,-0.448411119,0,0,0,,0,148,148,127,1,1,word,ORIGINAL,cursive,original_c.png,,,,,
,,,,32385,001,2025-12-02_12h31.18.109,HW_LDT_1,2024.2.4,Linux x86_64,59.88023952,,,,,,,,,,,,,,,,,,,,,657.5748,657.7716,657.7717,658.2717,,,,,,,,,,,,,,0.1251,1,,,,,,,,,,,,,,z,,,,,,,,,,,,,,,150,0,658.2722,658.4051,z,1,0.1251,,[],[],[],[],[],[],[],658.4053,660.4049,660.4051,660.4054,[],[],[],[],[],[],[],,660.4056,660.4058,-0.047578399,-0.448411119,0,0,0,,0,149,149,57,1,1,TL,hetirage,cursive,hetirage_c.png,,,,,
,,,,32385,001,2025-12-02_12h31.18.109,HW_LDT_1,2024.2.4,Linux x86_64,59.88023952,,,,,,,,,,,,,,,,,,,,,660.408,660.6049,660.6051,661.1049,,,,,,,,,,,,,,0.5435,1,,,,,,,,,,,,,,z,,,,,,,,,,,,,,,151,0,661.1057,661.6565,z,1,0.5435,,[],[],[],[],[],[],[],661.6566,663.6548,663.6549,663.6551,[],[],[],[],[],[],[],,663.6552,663.6553,-0.047578399,-0.448411119,0,0,0,,0,150,150,55,1,1,TL,fornute,print,fornute_p.png,,,,,
,,,,32385,001,2025-12-02_12h31.18.109,HW_LDT_1,2024.2.4,Linux x86_64,59.88023952,,,,,,,,,,,,,,,,,,,,,663.6565,663.8548,663.8548,664.3547,,,,,,,,,,,,,,0.2086,1,,,,,,,,,,,,,,z,,,,,,,,,,,,,,,152,1,664.3557,664.5715,z,1,0.2086,,[],[],[],[],[],[],[],664.5716,666.5712,666.5713,666.6046,[],[],[],[],[],[],[],z,666.6048,666.6053,-0.047578399,-0.448411119,0,0,0,,0,151,151,13,1,1,RL,linefal,print,linefal_p.png,0.0285,,,,
,,,,32385,001,2025-12-02_12h31.18.109,HW_LDT_1,2024.2.4,Linux x86_64,59.88023952,,,,,,,,,,,,,,,,,,,,,666.6076,666.8046,666.8046,667.3046,,,,,,,,,,,,,,0.8627,1,,,,,,,,,,,,,,z,,,,,,,,,,,,,,,153,0,667.3054,668.1712,z,1,0.8627,,[],[],[],[],[],[],[],668.1713,670.171,670.1712,670.1715,[],[],[],[],[],[],[],,670.1716,670.1719,-0.047578399,-0.448411119,0,0,0,,0,152,152,52,1,1,TL,decilate,cursive,decilate_c.png,,,,,
,,,,32385,001,2025-12-02_12h31.18.109,HW_LDT_1,2024.2.4,Linux x86_64,59.88023952,,,,,,,,,,,,,,,,,,,,,670.1741,670.3711,670.3712,670.8711,,,,,,,,,,,,,,0.2937,1,,,,,,,,,,,,,,z,,,,,,,,,,,,,,,154,1,670.8719,671.171,z,1,0.2937,,[],[],[],[],[],[],[],671.1712,673.1709,673.1709,673.2211,[],[],[],[],[],[],[],z,673.2213,673.2215,-0.047578399,-0.448411119,0,0,0,,0,153,153,64,1,1,TL,orepator,cursive,orepator_c.png,0.0489,,,,
,,,,32385,001,2025-12-02_12h31.18.109,HW_LDT_1,2024.2.4,Linux x86_64,59.88023952,,,,,,,,,,,,,,,,,,,,,673.2239,673.4211,673.4211,673.9207,,,,,,,,,,,,,,0.275,0,,,,,,,,,,,,,,m,,,,,,,,,,,,,,,155,0,673.9217,674.2045,z,0,0.275,,[],[],[],[],[],[],[],674.2052,676.204,676.2041,676.2045,[],[],[],[],[],[],[],,676.2046,676.2048,-0.047578399,-0.448411119,0,0,0,,0,154,154,157,1,1,word,VALIDITY,cursive,validity_c.png,,,,,
,,,,32385,001,2025-12-02_12h31.18.109,HW_LDT_1,2024.2.4,Linux x86_64,59.88023952,,,,,,,,,,,,,,,,,,,,,676.2072,676.4039,676.4039,676.904,,,,,,,,,,,,,,0.1463,0,,,,,,,,,,,,,,m,,,,,,,,,,,,,,,156,1,676.905,677.054,z,0,0.1463,,[],[],[],[],[],[],[],677.0542,679.0536,679.0536,679.1707,[],[],[],[],[],[],[],z,679.1708,679.1709,-0.047578399,-0.448411119,0,0,0,,0,155,155,128,1,1,word,PACIFIC,print,pacific_p.png,0.1076,,,,
,,,,32385,001,2025-12-02_12h31.18.109,HW_LDT_1,2024.2.4,Linux x86_64,59.88023952,,,,,,,,,,,,,,,,,,,,,679.1721,679.3705,679.3706,679.8706,,,,,,,,,,,,,,0.3407,0,,,,,,,,,,,,,,m,,,,,,,,,,,,,,,157,0,679.8715,680.2206,z,0,0.3407,,[],[],[],[],[],[],[],680.2208,682.22,682.2201,682.2209,[],[],[],[],[],[],[],,682.2209,682.221,-0.047578399,-0.448411119,0,0,0,,0,156,156,80,1,1,word,ACADEMY,cursive,academy_c.png,,,,,
,,,,32385,001,2025-12-02_12h31.18.109,HW_LDT_1,2024.2.4,Linux x86_64,59.88023952,,,,,,,,,,,,,,,,,,,,,682.2222,682.4204,682.4205,682.9203,,,,,,,,,,,,,,1.96,1,,,,,,,,,,,,,,z,,,,,,,,,,,,,,,158,0,682.9213,684.887,z,1,1.96,,[],[],[],[],[],[],[],684.8872,686.8869,686.887,686.8872,[],[],[],[],[],[],[],,686.8872,686.8873,-0.047578399,-0.448411119,0,0,0,,0,157,157,10,1,1,RL,efibor,cursive,efibor_c.png,,,,,
,,,,32385,001,2025-12-02_12h31.18.109,HW_LDT_1,2024.2.4,Linux x86_64,59.88023952,,,,,,,,,,,,,,,,,,,,,686.8884,687.0868,687.0869,687.5869,,,,,,,,,,,,,,0.5086,1,,,,,,,,,,,,,,z,,,,,,,,,,,,,,,159,0,687.5886,688.1035,z,1,0.5086,,[],[],[],[],[],[],[],688.1037,690.1035,690.1036,690.1041,[],[],[],[],[],[],[],,690.1042,690.1044,-0.047578399,-0.448411119,0,0,0,,0,158,158,8,1,1,RL,debave,print,debave_p.png,,,,,
,,,,32385,001,2025-12-02_12h31.18.109,HW_LDT_1,2024.2.4,Linux x86_64,59.88023952,,,,,,,,,,,,,,,,,,,,,690.1067,690.3033,690.3035,690.8033,,,,,,,,,,,,,,0.0733,1,,,,,,,,,,,,,,z,,,,,,,,,,,,,,,160,0,690.8044,690.8864,z,1,0.0733,,[],[],[],[],[],[],[],690.8865,692.8864,692.8864,692.8869,[],[],[],[],[],[],[],,692.887,692.8872,-0.047578399,-0.448411119,0,0,0,,0,159,159,7,1,1,RL,delahe,print,delahe_p.png,,,,,
,,,,32385,001,2025-12-02_12h31.18.109,HW_LDT_1,2024.2.4,Linux x86_64,59.88023952,,,,,,,,,,,,,,,,,,,,,,,,,,,,,,,,,,,,,,,,,,,,,,,,,,,,,,,,,,,,,,,,,,,,,,,,,,,,,,,,,,,,,,,,,,,,,,,,,,,,,,,,,,,,,,,,,,,,692.9289,697.8862
