counterbalance_lists.group,counterbalance_lists.remaining,get_list.started,get_list.stopped,participant,session,date,expName,psychopyVersion,OS,frameRate,Instructions.started,Instructions.stopped,key_resp.keys,instr_done_touch.x,instr_done_touch.y,instr_done_touch.leftButton,instr_done_touch.midButton,instr_done_touch.rightButton,instr_done_touch.clicked_name,start_instr.thisRepN,start_instr.thisTrialN,start_instr.thisN,start_instr.thisIndex,start_instr.ran,pageN,phase,instruct_text,has_image,instruct_image,key_resp.rt,key_resp.duration,showProgress.started,showProgress.stopped,fix.started,fix.stopped,prac.started,prac.stopped,response.keys,response.corr,response.rt,response.duration,touch_resp.x,touch_resp.y,touch_resp.leftButton,touch_resp.midButton,touch_resp.rightButton,touch_resp.time,touch_resp.clicked_name,rt,corr,feedback.started,feedback.stopped,trials.thisRepN,trials.thisTrialN,trials.thisN,trials.thisIndex,trials.ran,TrialID,StimulusType,Condition,PrimeDuration,Prime,Target,corrAns,Instructions_expt.started,Instructions_expt.stopped,key_resp_3.keys,instr_done_touch_3.x,instr_done_touch_3.y,instr_done_touch_3.leftButton,instr_done_touch_3.midButton,instr_done_touch_3.rightButton,instr_done_touch_3.clicked_name,instr_experiment.thisRepN,instr_experiment.thisTrialN,instr_experiment.thisN,instr_experiment.thisIndex,instr_experiment.ran,trialID,flag,maintask.started,maintask.stopped,key_resp_2.keys,key_resp_2.corr,key_resp_2.rt,key_resp_2.duration,targ_click.x,targ_click.y,targ_click.leftButton,targ_click.midButton,targ_click.rightButton,targ_click.time,targ_click.clicked_name,ITI.started,ITI.stopped,probe.started,probe.stopped,click_probe.x,click_probe.y,click_probe.leftButton,click_probe.midButton,click_probe.rightButton,click_probe.time,click_probe.clicked_name,key_resp_probe.keys,Break.started,Break.stopped,break_done_touch.x,break_done_touch.y,break_done_touch.leftButton,break_done_touch.midButton,break_done_touch.rightButton,break_done_keyboard.keys,list4_trials.thisRepN,list4_trials.thisTrialN,list4_trials.thisN,list4_trials.thisIndex,list4_trials.ran,list_id,item_type,string,font,stim_file,key_resp_probe.rt,key_resp_probe.duration,break_done_keyboard.rt,break_done_keyboard.duration,End.started,End.stopped
list4,,0.547,0.547,32389,001,2025-12-04_18h49.57.656,HW_LDT_1,2024.2.4,Win32,30.21148036,,,,,,,,,,,,,,,,,,,,,,,,,,,,,,,,,,,,,,,,,,,,,,,,,,,,,,,,,,,,,,,,,,,,,,,,,,,,,,,,,,,,,,,,,,,,,,,,,,,,,,,,,,,,,,,,,,,,,,,
,,,,32389,001,2025-12-04_18h49.57.656,HW_LDT_1,2024.2.4,Win32,30.21148036,0.6084,2.9546,,-0.055833308,-0.413333321,1,0,0,instr_done_button,0,0,0,0,1,1,instructions,"INSTRUCTIONS
At the start of each trial, look at the plus sign  (+) in the center of the screen.  This tells you that a trial is about to begin and where to look. Second, the plus sign will disappear and a string of letters will appear. Your task is to determine if the string of letters is a word or not. If the item is a word press the M key (on keyboard)  or touch the word button (phone/tablet).  If the item is not a word,  press the  Z key (on keyboard)  or touch the nonword button (on phone/tablet). The items will be presented for a short time. 
Press the space bar or touch  continue.",0,,,,,,,,,,,,,,,,,,,,,,,,,,,,,,,,,,,,,,,,,,,,,,,,,,,,,,,,,,,,,,,,,,,,,,,,,,,,,,,,,,,,,,,,,,,,,,,,,,,,,
,,,,32389,001,2025-12-04_18h49.57.656,HW_LDT_1,2024.2.4,Win32,30.21148036,2.9585,15.0191,space,-0.078333346,-0.220833333,0,0,0,,0,1,1,1,1,2,instructions,"If your device has a keyboard, press the 'Z' key for nonwords and the 'M' key for words.





Press the space bar or touch the button below to continue.",0,keyboard-example.gif,12.0088,,,,,,,,,,,,,,,,,,,,,,,,,,,,,,,,,,,,,,,,,,,,,,,,,,,,,,,,,,,,,,,,,,,,,,,,,,,,,,,,,,,,,,,,,,,,,,,,,,,
,,,,32389,001,2025-12-04_18h49.57.656,HW_LDT_1,2024.2.4,Win32,30.21148036,15.0219,17.7855,space,-0.078333346,-0.220833333,0,0,0,,0,2,2,2,1,3,instructions,"If you are using a touchscreen only device, use the buttons on the screen. Do not use the mouse.





Press the space bar or touch the button below to continue.",0,touchscreen-example.gif,2.7202,,,,,,,,,,,,,,,,,,,,,,,,,,,,,,,,,,,,,,,,,,,,,,,,,,,,,,,,,,,,,,,,,,,,,,,,,,,,,,,,,,,,,,,,,,,,,,,,,,,
,,,,32389,001,2025-12-04_18h49.57.656,HW_LDT_1,2024.2.4,Win32,30.21148036,17.7894,24.0863,space,-0.078333346,-0.220833333,0,0,0,,0,3,3,3,1,4,instructions,"It is very important that you respond as quickly and accurately as possible, as each letter string will only be on the screen for two seconds. If you do not respond within this time, the message 'Too slow!' will be displayed and the experiment will progress to the next letter string. The first 20 trials will be practice trials and you will receive feedback on your answers. 

Press the space bar or touch the button below to start the practice trials.",0,,6.264,,,,,,,,,,,,,,,,,,,,,,,,,,,,,,,,,,,,,,,,,,,,,,,,,,,,,,,,,,,,,,,,,,,,,,,,,,,,,,,,,,,,,,,,,,,,,,,,,,,
,,,,32389,001,2025-12-04_18h49.57.656,HW_LDT_1,2024.2.4,Win32,30.21148036,,,,,,,,,,,,,,,,,,,,,,24.1714,24.2853,24.2858,24.7854,24.786,26.4208,m,1,1.575,,[],[],[],[],[],[],[],1.575,1,26.4224,26.9193,0,0,0,7,1,1008,WORD,UN,16,hurdle,VOLUME,m,,,,,,,,,,,,,,,,,,,,,,,,,,,,,,,,,,,,,,,,,,,,,,,,,,,,,,,,,,,,,,,,,
,,,,32389,001,2025-12-04_18h49.57.656,HW_LDT_1,2024.2.4,Win32,30.21148036,,,,,,,,,,,,,,,,,,,,,,26.9232,27.1186,27.1186,27.6214,27.627,28.6851,z,1,1.0353,,[],[],[],[],[],[],[],1.0353,1,28.6852,29.1875,0,1,1,11,1,1012,NW,"ID",16,rashet,RASHET,z,,,,,,,,,,,,,,,,,,,,,,,,,,,,,,,,,,,,,,,,,,,,,,,,,,,,,,,,,,,,,,,,,
,,,,32389,001,2025-12-04_18h49.57.656,HW_LDT_1,2024.2.4,Win32,30.21148036,,,,,,,,,,,,,,,,,,,,,,29.1913,29.3849,29.3853,29.889,29.8899,30.8185,z,1,0.8972,,[],[],[],[],[],[],[],0.8972,1,30.8187,31.3182,0,2,2,14,1,1015,NW,UN,16,miaber,THRALE,z,,,,,,,,,,,,,,,,,,,,,,,,,,,,,,,,,,,,,,,,,,,,,,,,,,,,,,,,,,,,,,,,,
,,,,32389,001,2025-12-04_18h49.57.656,HW_LDT_1,2024.2.4,Win32,30.21148036,,,,,,,,,,,,,,,,,,,,,,31.3229,31.5182,31.5184,32.0178,32.0201,32.7538,z,1,0.7149,,[],[],[],[],[],[],[],0.7149,1,32.7542,33.2527,0,3,3,10,1,1011,NW,"ID",16,inlade,INLADE,z,,,,,,,,,,,,,,,,,,,,,,,,,,,,,,,,,,,,,,,,,,,,,,,,,,,,,,,,,,,,,,,,,
,,,,32389,001,2025-12-04_18h49.57.656,HW_LDT_1,2024.2.4,Win32,30.21148036,,,,,,,,,,,,,,,,,,,,,,33.2567,33.4522,33.4523,33.9521,33.9549,34.5852,m,1,0.5931,,[],[],[],[],[],[],[],0.5931,1,34.5854,35.0863,0,4,4,0,1,1001,WORD,"ID",33,utopia,UTOPIA,m,,,,,,,,,,,,,,,,,,,,,,,,,,,,,,,,,,,,,,,,,,,,,,,,,,,,,,,,,,,,,,,,,
,,,,32389,001,2025-12-04_18h49.57.656,HW_LDT_1,2024.2.4,Win32,30.21148036,,,,,,,,,,,,,,,,,,,,,,35.089,35.2856,35.2857,35.7852,35.7879,36.4855,m,1,0.6627,,[],[],[],[],[],[],[],0.6627,1,36.486,36.985,0,5,5,6,1,1007,WORD,UN,16,tropic,ZOMBIE,m,,,,,,,,,,,,,,,,,,,,,,,,,,,,,,,,,,,,,,,,,,,,,,,,,,,,,,,,,,,,,,,,,
,,,,32389,001,2025-12-04_18h49.57.656,HW_LDT_1,2024.2.4,Win32,30.21148036,,,,,,,,,,,,,,,,,,,,,,36.9886,37.1851,37.1852,37.6856,37.6885,38.5521,z,1,0.8383,,[],[],[],[],[],[],[],0.8383,1,38.5523,39.0527,0,6,6,12,1,1013,NW,UN,33,adveil,SPRINY,z,,,,,,,,,,,,,,,,,,,,,,,,,,,,,,,,,,,,,,,,,,,,,,,,,,,,,,,,,,,,,,,,,
,,,,32389,001,2025-12-04_18h49.57.656,HW_LDT_1,2024.2.4,Win32,30.21148036,,,,,,,,,,,,,,,,,,,,,,39.0567,39.2519,39.2519,39.7515,39.7554,40.6201,m,1,0.8381,,[],[],[],[],[],[],[],0.8381,1,40.6203,41.1187,0,7,7,4,1,1005,WORD,UN,33,abound,SQUEAK,m,,,,,,,,,,,,,,,,,,,,,,,,,,,,,,,,,,,,,,,,,,,,,,,,,,,,,,,,,,,,,,,,,
,,,,32389,001,2025-12-04_18h49.57.656,HW_LDT_1,2024.2.4,Win32,30.21148036,,,,,,,,,,,,,,,,,,,,,,41.1225,41.3181,41.3182,41.8182,41.8202,42.5189,z,1,0.6624,,[],[],[],[],[],[],[],0.6624,1,42.5192,43.0187,0,8,8,8,1,1009,NW,"ID",33,aslert,ASLERT,z,,,,,,,,,,,,,,,,,,,,,,,,,,,,,,,,,,,,,,,,,,,,,,,,,,,,,,,,,,,,,,,,,
,,,,32389,001,2025-12-04_18h49.57.656,HW_LDT_1,2024.2.4,Win32,30.21148036,,,,,,,,,,,,,,,,,,,,,,43.0223,43.2177,43.2178,43.718,43.7203,44.3514,m,1,0.5943,,[],[],[],[],[],[],[],0.5943,1,44.3519,44.8537,0,9,9,3,1,1004,WORD,"ID",16,matrix,MATRIX,m,,,,,,,,,,,,,,,,,,,,,,,,,,,,,,,,,,,,,,,,,,,,,,,,,,,,,,,,,,,,,,,,,
,,,,32389,001,2025-12-04_18h49.57.656,HW_LDT_1,2024.2.4,Win32,30.21148036,,,,,,,,,,,,,,,,,,,,,,44.8568,45.0521,45.0521,45.5515,45.5539,46.3188,z,1,0.728,,[],[],[],[],[],[],[],0.728,1,46.319,46.8184,0,10,10,13,1,1014,NW,UN,33,winfer,ROUPET,z,,,,,,,,,,,,,,,,,,,,,,,,,,,,,,,,,,,,,,,,,,,,,,,,,,,,,,,,,,,,,,,,,
,,,,32389,001,2025-12-04_18h49.57.656,HW_LDT_1,2024.2.4,Win32,30.21148036,,,,,,,,,,,,,,,,,,,,,,46.8218,47.0177,47.0178,47.518,47.5206,48.1518,m,1,0.5926,,[],[],[],[],[],[],[],0.5926,1,48.1519,48.6512,0,11,11,1,1,1002,WORD,"ID",33,adjust,ADJUST,m,,,,,,,,,,,,,,,,,,,,,,,,,,,,,,,,,,,,,,,,,,,,,,,,,,,,,,,,,,,,,,,,,
,,,,32389,001,2025-12-04_18h49.57.656,HW_LDT_1,2024.2.4,Win32,30.21148036,,,,,,,,,,,,,,,,,,,,,,48.6544,48.8523,48.8524,49.351,49.3538,50.1511,z,1,0.781,,[],[],[],[],[],[],[],0.781,1,50.1515,50.6517,0,12,12,9,1,1010,NW,"ID",33,fariny,FARINY,z,,,,,,,,,,,,,,,,,,,,,,,,,,,,,,,,,,,,,,,,,,,,,,,,,,,,,,,,,,,,,,,,,
,,,,32389,001,2025-12-04_18h49.57.656,HW_LDT_1,2024.2.4,Win32,30.21148036,,,,,,,,,,,,,,,,,,,,,,50.6549,50.8517,50.8519,51.351,51.3546,51.9844,m,1,0.6028,,[],[],[],[],[],[],[],0.6028,1,51.9846,52.4852,0,13,13,2,1,1003,WORD,"ID",16,almond,ALMOND,m,,,,,,,,,,,,,,,,,,,,,,,,,,,,,,,,,,,,,,,,,,,,,,,,,,,,,,,,,,,,,,,,,
,,,,32389,001,2025-12-04_18h49.57.656,HW_LDT_1,2024.2.4,Win32,30.21148036,,,,,,,,,,,,,,,,,,,,,,52.488,52.6842,52.6843,53.184,53.1871,53.8851,m,1,0.6629,,[],[],[],[],[],[],[],0.6629,1,53.8853,54.3844,0,14,14,5,1,1006,WORD,UN,33,frenzy,OBTAIN,m,,,,,,,,,,,,,,,,,,,,,,,,,,,,,,,,,,,,,,,,,,,,,,,,,,,,,,,,,,,,,,,,,
,,,,32389,001,2025-12-04_18h49.57.656,HW_LDT_1,2024.2.4,Win32,30.21148036,,,,,,,,,,,,,,,,,,,,,,54.3875,54.5844,54.5845,55.085,55.086,55.9177,z,1,0.7989,,[],[],[],[],[],[],[],0.7989,1,55.9181,56.4186,0,15,15,15,1,1016,NW,UN,16,mushed,WHAISE,z,,,,,,,,,,,,,,,,,,,,,,,,,,,,,,,,,,,,,,,,,,,,,,,,,,,,,,,,,,,,,,,,,
,,,,32389,001,2025-12-04_18h49.57.656,HW_LDT_1,2024.2.4,Win32,30.21148036,,,,,,,,,,,,,,,1,end_of_practice,"You have completed the practice trials. During the experimental trials, you will not receive feedback. On some trials you will be asked to report whether the item you just saw was in cursive or print. 
Before you begin, please ensure that you are in a comfortable and quiet location and will not be disturbed for about 15 minutes, as we cannot use your data if you do not complete all the trials. 
 When you are ready to start the experimental trials, please press space or touch the button below.",,,,,,,,,,,,,,,,,,,,,,,,,,,,,,,,,,,,,,56.4331,66.5847,,-0.098333295,-0.406666692,1,0,0,instr_done_button_3,0,0,0,0,1,,,,,,,,,,,,,,,,,,,,,,,,,,,,,,,,,,,,,,,,,,,,,,,,,,,
,,,,32389,001,2025-12-04_18h49.57.656,HW_LDT_1,2024.2.4,Win32,30.21148036,,,,,,,,,,,,,,,,,,,,,,66.6137,66.7833,66.7834,67.2838,,,,,,,,,,,,,,1.969,1,,,,,,,,,,,,,,z,,,,,,,,,,,,,,,1,0,67.286,69.285,z,1,1.969,,[],[],[],[],[],[],[],69.2856,71.2839,71.2843,71.2911,[],[],[],[],[],[],[],,71.2914,71.2976,-0.070833333,-0.390000025,0,0,0,,0,0,0,42,1,4,RL,revune,print,revune_p.png,,,,,,
,,,,32389,001,2025-12-04_18h49.57.656,HW_LDT_1,2024.2.4,Win32,30.21148036,,,,,,,,,,,,,,,,,,,,,,71.2997,71.4836,71.4837,71.9844,,,,,,,,,,,,,,0.6604,1,,,,,,,,,,,,,,m,,,,,,,,,,,,,,,2,0,71.9855,72.6503,m,1,0.6604,,[],[],[],[],[],[],[],72.6504,74.6499,74.65,74.6503,[],[],[],[],[],[],[],,74.6504,74.6505,-0.070833333,-0.390000025,0,0,0,,0,1,1,109,1,4,word,GRATEFUL,print,grateful_p.png,,,,,,
,,,,32389,001,2025-12-04_18h49.57.656,HW_LDT_1,2024.2.4,Win32,30.21148036,,,,,,,,,,,,,,,,,,,,,,74.6526,74.8497,74.8498,75.3495,,,,,,,,,,,,,,0.7165,1,,,,,,,,,,,,,,m,,,,,,,,,,,,,,,3,0,75.3502,76.0828,m,1,0.7165,,[],[],[],[],[],[],[],76.0829,78.0836,78.084,78.0846,[],[],[],[],[],[],[],,78.0847,78.0849,-0.070833333,-0.390000025,0,0,0,,0,2,2,115,1,4,word,LOGICAL,print,logical_p.png,,,,,,
,,,,32389,001,2025-12-04_18h49.57.656,HW_LDT_1,2024.2.4,Win32,30.21148036,,,,,,,,,,,,,,,,,,,,,,78.0878,78.2832,78.2833,78.783,,,,,,,,,,,,,,1.5743,1,,,,,,,,,,,,,,z,,,,,,,,,,,,,,,4,0,78.7843,80.3838,z,1,1.5743,,[],[],[],[],[],[],[],80.3839,82.3835,82.3836,82.3838,[],[],[],[],[],[],[],,82.3839,82.3841,-0.070833333,-0.390000025,0,0,0,,0,3,3,59,1,4,TL,fornute,cursive,fornute_c.png,,,,,,
,,,,32389,001,2025-12-04_18h49.57.656,HW_LDT_1,2024.2.4,Win32,30.21148036,,,,,,,,,,,,,,,,,,,,,,82.3867,82.5835,82.5836,83.0834,,,,,,,,,,,,,,0.795,1,,,,,,,,,,,,,,z,,,,,,,,,,,,,,,5,0,83.0847,83.8846,z,1,0.795,,[],[],[],[],[],[],[],83.885,85.8851,85.8852,85.8858,[],[],[],[],[],[],[],,85.8859,85.8862,-0.070833333,-0.390000025,0,0,0,,0,4,4,31,1,4,RL,orimipal,print,orimipal_p.png,,,,,,
,,,,32389,001,2025-12-04_18h49.57.656,HW_LDT_1,2024.2.4,Win32,30.21148036,,,,,,,,,,,,,,,,,,,,,,85.8889,86.0827,86.0828,86.5836,,,,,,,,,,,,,,0.7503,1,,,,,,,,,,,,,,z,,,,,,,,,,,,,,,6,0,86.5848,87.3503,z,1,0.7503,,[],[],[],[],[],[],[],87.3506,89.35,89.3503,89.3511,[],[],[],[],[],[],[],,89.3512,89.3515,-0.070833333,-0.390000025,0,0,0,,0,5,5,57,1,4,TL,etidor,print,etidor_p.png,,,,,,
,,,,32389,001,2025-12-04_18h49.57.656,HW_LDT_1,2024.2.4,Win32,30.21148036,,,,,,,,,,,,,,,,,,,,,,89.3539,89.5497,89.5498,90.0505,,,,,,,,,,,,,,0.5743,1,,,,,,,,,,,,,,z,,,,,,,,,,,,,,,7,0,90.0512,90.6502,z,1,0.5743,,[],[],[],[],[],[],[],90.6504,92.6493,92.6495,92.6499,[],[],[],[],[],[],[],,92.6501,92.6505,-0.070833333,-0.390000025,0,0,0,,0,6,6,48,1,4,RL,vabifity,print,vabifity_p.png,,,,,,
,,,,32389,001,2025-12-04_18h49.57.656,HW_LDT_1,2024.2.4,Win32,30.21148036,,,,,,,,,,,,,,,,,,,,,,92.6533,92.8499,92.8499,93.3504,,,,,,,,,,,,,,0.4314,0,,,,,,,,,,,,,,m,,,,,,,,,,,,,,,8,0,93.3514,93.7839,z,0,0.4314,,[],[],[],[],[],[],[],93.784,95.7841,95.7842,95.7845,[],[],[],[],[],[],[],,95.7845,95.7848,-0.070833333,-0.390000025,0,0,0,,0,7,7,134,1,4,word,QUALIFY,print,qualify_p.png,,,,,,
,,,,32389,001,2025-12-04_18h49.57.656,HW_LDT_1,2024.2.4,Win32,30.21148036,,,,,,,,,,,,,,,,,,,,,,95.786,95.9832,95.9833,96.4842,,,,,,,,,,,,,,1.6719,1,,,,,,,,,,,,,,m,,,,,,,,,,,,,,,9,0,96.4861,98.1832,m,1,1.6719,,[],[],[],[],[],[],[],98.1834,100.1828,100.1829,100.1838,[],[],[],[],[],[],[],,100.1838,100.184,-0.070833333,-0.390000025,0,0,0,,0,8,8,129,1,4,word,PARENT,cursive,parent_c.png,,,,,,
,,,,32389,001,2025-12-04_18h49.57.656,HW_LDT_1,2024.2.4,Win32,30.21148036,,,,,,,,,,,,,,,,,,,,,,100.1865,100.3828,100.3829,100.8828,,,,,,,,,,,,,,1.3501,1,,,,,,,,,,,,,,m,,,,,,,,,,,,,,,10,0,100.8844,102.2489,m,1,1.3501,,[],[],[],[],[],[],[],102.249,104.2486,104.2487,104.249,[],[],[],[],[],[],[],,104.2491,104.2493,-0.070833333,-0.390000025,0,0,0,,0,9,9,153,1,4,word,STOLEN,cursive,stolen_c.png,,,,,,
,,,,32389,001,2025-12-04_18h49.57.656,HW_LDT_1,2024.2.4,Win32,30.21148036,,,,,,,,,,,,,,,,,,,,,,104.2515,104.4496,104.4496,104.949,,,,,,,,,,,,,,1.92,0,,,,,,,,,,,,,,m,,,,,,,,,,,,,,,11,0,104.9496,106.8821,z,0,1.92,,[],[],[],[],[],[],[],106.8822,108.8818,108.882,108.8823,[],[],[],[],[],[],[],,108.8824,108.8825,-0.070833333,-0.390000025,0,0,0,,0,10,10,87,1,4,word,CAFETERIA,cursive,cafeteria_c.png,,,,,,
,,,,32389,001,2025-12-04_18h49.57.656,HW_LDT_1,2024.2.4,Win32,30.21148036,,,,,,,,,,,,,,,,,,,,,,108.8843,109.0819,109.0819,109.582,,,,,,,,,,,,,,0.659,1,,,,,,,,,,,,,,m,,,,,,,,,,,,,,,12,1,109.5828,110.2488,m,1,0.659,,[],[],[],[],[],[],[],110.2489,112.2486,112.2487,114.8825,[],[],[],[],[],[],[],m,114.8828,114.883,-0.070833333,-0.390000025,0,0,0,,0,11,11,94,1,4,word,CLINICAL,print,clinical_p.png,2.6138,,,,,
,,,,32389,001,2025-12-04_18h49.57.656,HW_LDT_1,2024.2.4,Win32,30.21148036,,,,,,,,,,,,,,,,,,,,,,114.886,115.0825,115.0826,115.5835,,,,,,,,,,,,,,0.7068,1,,,,,,,,,,,,,,m,,,,,,,,,,,,,,,13,1,115.5852,116.3155,m,1,0.7068,,[],[],[],[],[],[],[],116.3157,118.3149,118.3152,119.5485,[],[],[],[],[],[],[],m,119.5487,119.5491,-0.070833333,-0.390000025,0,0,0,,0,12,12,119,1,4,word,MEMORY,print,memory_p.png,1.2075,,,,,
,,,,32389,001,2025-12-04_18h49.57.656,HW_LDT_1,2024.2.4,Win32,30.21148036,,,,,,,,,,,,,,,,,,,,,,119.5515,119.7487,119.7488,120.2489,,,,,,,,,,,,,,0.7519,1,,,,,,,,,,,,,,m,,,,,,,,,,,,,,,14,0,120.2507,121.0159,m,1,0.7519,,[],[],[],[],[],[],[],121.016,123.0153,123.0155,123.0163,[],[],[],[],[],[],[],,123.0164,123.0166,-0.070833333,-0.390000025,0,0,0,,0,13,13,95,1,4,word,COMEDY,print,comedy_p.png,,,,,,
,,,,32389,001,2025-12-04_18h49.57.656,HW_LDT_1,2024.2.4,Win32,30.21148036,,,,,,,,,,,,,,,,,,,,,,123.0192,123.2154,123.2155,123.7147,,,,,,,,,,,,,,2.3743,1,,,,,,,,,,,,,,z,,,,,,,,,,,,,,,15,0,123.7154,126.1166,z,1,2.3743,,[],[],[],[],[],[],[],126.1168,128.1166,128.1167,128.1171,[],[],[],[],[],[],[],,128.1172,128.1174,-0.070833333,-0.390000025,0,0,0,,0,14,14,19,1,4,RL,elacodate,cursive,elacodate_c.png,,,,,,
,,,,32389,001,2025-12-04_18h49.57.656,HW_LDT_1,2024.2.4,Win32,30.21148036,,,,,,,,,,,,,,,,,,,,,,128.1198,128.3147,128.3147,128.8151,,,,,,,,,,,,,,0.2749,0,,,,,,,,,,,,,,m,,,,,,,,,,,,,,,16,0,128.8161,129.1157,z,0,0.2749,,[],[],[],[],[],[],[],129.1158,131.1172,131.1172,131.1175,[],[],[],[],[],[],[],,131.1176,131.1176,-0.070833333,-0.390000025,0,0,0,,0,15,15,113,1,4,word,LITERAL,cursive,literal_c.png,,,,,,
,,,,32389,001,2025-12-04_18h49.57.656,HW_LDT_1,2024.2.4,Win32,30.21148036,,,,,,,,,,,,,,,,,,,,,,131.1201,131.3156,131.3156,131.8146,,,,,,,,,,,,,,0.9079,1,,,,,,,,,,,,,,m,,,,,,,,,,,,,,,17,0,131.8154,132.7499,m,1,0.9079,,[],[],[],[],[],[],[],132.75,134.7486,134.7487,134.7489,[],[],[],[],[],[],[],,134.7489,134.749,-0.070833333,-0.390000025,0,0,0,,0,16,16,140,1,4,word,RELATIVE,print,relative_p.png,,,,,,
,,,,32389,001,2025-12-04_18h49.57.656,HW_LDT_1,2024.2.4,Win32,30.21148036,,,,,,,,,,,,,,,,,,,,,,134.7511,134.9483,134.9484,135.4484,,,,,,,,,,,,,,0.8156,0,,,,,,,,,,,,,,z,,,,,,,,,,,,,,,18,0,135.4489,136.2821,m,0,0.8156,,[],[],[],[],[],[],[],136.2824,138.2825,138.2826,138.2829,[],[],[],[],[],[],[],,138.283,138.2832,-0.070833333,-0.390000025,0,0,0,,0,17,17,69,1,4,TL,quafily,print,quafily_p.png,,,,,,
,,,,32389,001,2025-12-04_18h49.57.656,HW_LDT_1,2024.2.4,Win32,30.21148036,,,,,,,,,,,,,,,,,,,,,,138.286,138.4815,138.4816,138.9815,,,,,,,,,,,,,,1.3082,1,,,,,,,,,,,,,,m,,,,,,,,,,,,,,,19,0,138.9823,140.3154,m,1,1.3082,,[],[],[],[],[],[],[],140.3155,142.3143,142.3143,142.3145,[],[],[],[],[],[],[],,142.3146,142.315,-0.070833333,-0.390000025,0,0,0,,0,18,18,97,1,4,word,COVERAGE,cursive,coverage_c.png,,,,,,
,,,,32389,001,2025-12-04_18h49.57.656,HW_LDT_1,2024.2.4,Win32,30.21148036,,,,,,,,,,,,,,,,,,,,,,142.3166,142.5145,142.5145,143.0148,,,,,,,,,,,,,,1.441,1,,,,,,,,,,,,,,z,,,,,,,,,,,,,,,20,0,143.0153,144.4814,z,1,1.441,,[],[],[],[],[],[],[],144.4816,146.4816,146.4817,146.482,[],[],[],[],[],[],[],,146.4821,146.4823,-0.070833333,-0.390000025,0,0,0,,0,19,19,14,1,4,RL,delahe,cursive,delahe_c.png,,,,,,
,,,,32389,001,2025-12-04_18h49.57.656,HW_LDT_1,2024.2.4,Win32,30.21148036,,,,,,,,,,,,,,,,,,,,,,146.4846,146.6813,146.6814,147.1812,,,,,,,,,,,,,,0.6586,1,,,,,,,,,,,,,,z,,,,,,,,,,,,,,,21,1,147.182,147.8473,z,1,0.6586,,[],[],[],[],[],[],[],147.8475,149.8481,149.8481,154.0144,[],[],[],[],[],[],[],z,154.0145,154.0147,-0.070833333,-0.390000025,0,0,0,,0,20,20,25,1,4,RL,macise,print,macise_p.png,4.1418,,,,,
,,,,32389,001,2025-12-04_18h49.57.656,HW_LDT_1,2024.2.4,Win32,30.21148036,,,,,,,,,,,,,,,,,,,,,,154.0173,154.2151,154.2152,154.7148,,,,,,,,,,,,,,0.7718,1,,,,,,,,,,,,,,z,,,,,,,,,,,,,,,22,0,154.7159,155.5145,z,1,0.7718,,[],[],[],[],[],[],[],155.5147,157.5144,157.5145,157.5148,[],[],[],[],[],[],[],,157.5149,157.5151,-0.070833333,-0.390000025,0,0,0,,0,21,21,0,1,4,RL,abanemy,print,abanemy_p.png,,,,,,
,,,,32389,001,2025-12-04_18h49.57.656,HW_LDT_1,2024.2.4,Win32,30.21148036,,,,,,,,,,,,,,,,,,,,,,157.5169,157.7142,157.7143,158.2147,,,,,,,,,,,,,,1.098,1,,,,,,,,,,,,,,z,,,,,,,,,,,,,,,23,0,158.2155,159.3151,z,1,1.098,,[],[],[],[],[],[],[],159.3152,161.3139,161.3139,161.3142,[],[],[],[],[],[],[],,161.3143,161.3145,-0.070833333,-0.390000025,0,0,0,,0,22,22,67,1,4,TL,polupar,print,polupar_p.png,,,,,,
,,,,32389,001,2025-12-04_18h49.57.656,HW_LDT_1,2024.2.4,Win32,30.21148036,,,,,,,,,,,,,,,,,,,,,,161.3171,161.5137,161.5137,162.0144,,,,,,,,,,,,,,0.5905,1,,,,,,,,,,,,,,z,,,,,,,,,,,,,,,24,0,162.015,162.6138,z,1,0.5905,,[],[],[],[],[],[],[],162.6139,164.6133,164.6133,164.6135,[],[],[],[],[],[],[],,164.6135,164.6137,-0.070833333,-0.390000025,0,0,0,,0,23,23,27,1,4,RL,menowy,print,menowy_p.png,,,,,,
,,,,32389,001,2025-12-04_18h49.57.656,HW_LDT_1,2024.2.4,Win32,30.21148036,,,,,,,,,,,,,,,,,,,,,,164.6149,164.8134,164.8135,165.3142,,,,,,,,,,,,,,0.8932,1,,,,,,,,,,,,,,z,,,,,,,,,,,,,,,25,0,165.3149,166.2176,z,1,0.8932,,[],[],[],[],[],[],[],166.2177,168.2144,168.2145,168.2148,[],[],[],[],[],[],[],,168.2149,168.215,-0.070833333,-0.390000025,0,0,0,,0,24,24,60,1,4,TL,hetirage,print,hetirage_p.png,,,,,,
,,,,32389,001,2025-12-04_18h49.57.656,HW_LDT_1,2024.2.4,Win32,30.21148036,,,,,,,,,,,,,,,,,,,,,,168.2181,168.4131,168.4132,168.9141,,,,,,,,,,,,,,0.9543,1,,,,,,,,,,,,,,z,,,,,,,,,,,,,,,26,0,168.9153,169.8807,z,1,0.9543,,[],[],[],[],[],[],[],169.8809,171.8806,171.8807,171.881,[],[],[],[],[],[],[],,171.881,171.8812,-0.070833333,-0.390000025,0,0,0,,0,25,25,26,1,4,RL,mesibine,cursive,mesibine_c.png,,,,,,
,,,,32389,001,2025-12-04_18h49.57.656,HW_LDT_1,2024.2.4,Win32,30.21148036,,,,,,,,,,,,,,,,,,,,,,171.8842,172.0816,172.0817,172.5812,,,,,,,,,,,,,,0.7106,1,,,,,,,,,,,,,,m,,,,,,,,,,,,,,,27,0,172.5819,173.3133,m,1,0.7106,,[],[],[],[],[],[],[],173.3135,175.3135,175.3136,175.314,[],[],[],[],[],[],[],,175.3141,175.3142,-0.070833333,-0.390000025,0,0,0,,0,26,26,154,1,4,word,STORAGE,print,storage_p.png,,,,,,
,,,,32389,001,2025-12-04_18h49.57.656,HW_LDT_1,2024.2.4,Win32,30.21148036,,,,,,,,,,,,,,,,,,,,,,175.3165,175.5143,175.5144,176.0141,,,,,,,,,,,,,,1.7042,1,,,,,,,,,,,,,,z,,,,,,,,,,,,,,,28,0,176.0154,177.7477,z,1,1.7042,,[],[],[],[],[],[],[],177.7478,179.7472,179.7473,179.7481,[],[],[],[],[],[],[],,179.7482,179.7483,-0.070833333,-0.390000025,0,0,0,,0,27,27,16,1,4,RL,desifate,cursive,desifate_c.png,,,,,,
,,,,32389,001,2025-12-04_18h49.57.656,HW_LDT_1,2024.2.4,Win32,30.21148036,,,,,,,,,,,,,,,,,,,,,,179.7515,179.9467,179.9468,180.4475,,,,,,,,,,,,,,0.8825,1,,,,,,,,,,,,,,m,,,,,,,,,,,,,,,29,0,180.4483,181.3466,m,1,0.8825,,[],[],[],[],[],[],[],181.3468,183.3475,183.3477,183.3479,[],[],[],[],[],[],[],,183.348,183.3482,-0.070833333,-0.390000025,0,0,0,,0,28,28,111,1,4,word,INDICATE,print,indicate_p.png,,,,,,
,,,,32389,001,2025-12-04_18h49.57.656,HW_LDT_1,2024.2.4,Win32,30.21148036,,,,,,,,,,,,,,,,,,,,,,183.351,183.5467,183.5468,184.0473,,,,,,,,,,,,,,0.8114,1,,,,,,,,,,,,,,m,,,,,,,,,,,,,,,30,1,184.0481,184.8801,m,1,0.8114,,[],[],[],[],[],[],[],184.8802,186.8795,186.8797,188.513,[],[],[],[],[],[],[],m,188.5131,188.5132,-0.070833333,-0.390000025,0,0,0,,0,29,29,143,1,4,word,REMOVAL,print,removal_p.png,1.6087,,,,,
,,,,32389,001,2025-12-04_18h49.57.656,HW_LDT_1,2024.2.4,Win32,30.21148036,,,,,,,,,,,,,,,,,,,,,,188.5152,188.7132,188.7133,189.2127,,,,,,,,,,,,,,0.7408,1,,,,,,,,,,,,,,m,,,,,,,,,,,,,,,31,0,189.2136,189.9805,m,1,0.7408,,[],[],[],[],[],[],[],189.9806,191.9798,191.9799,191.9807,[],[],[],[],[],[],[],,191.9809,191.9811,-0.070833333,-0.390000025,0,0,0,,0,30,30,84,1,4,word,BELOVED,print,beloved_p.png,,,,,,
,,,,32389,001,2025-12-04_18h49.57.656,HW_LDT_1,2024.2.4,Win32,30.21148036,,,,,,,,,,,,,,,,,,,,,,191.9847,192.1801,192.1801,192.6802,,,,,,,,,,,,,,0.6912,1,,,,,,,,,,,,,,m,,,,,,,,,,,,,,,32,0,192.6809,193.3807,m,1,0.6912,,[],[],[],[],[],[],[],193.3807,195.3793,195.3794,195.3795,[],[],[],[],[],[],[],,195.3796,195.3797,-0.070833333,-0.390000025,0,0,0,,0,31,31,93,1,4,word,CEREMONY,print,ceremony_p.png,,,,,,
,,,,32389,001,2025-12-04_18h49.57.656,HW_LDT_1,2024.2.4,Win32,30.21148036,,,,,,,,,,,,,,,,,,,,,,195.3813,195.579,195.579,196.0792,,,,,,,,,,,,,,0.9549,1,,,,,,,,,,,,,,m,,,,,,,,,,,,,,,33,0,196.0799,197.0465,m,1,0.9549,,[],[],[],[],[],[],[],197.0466,199.0457,199.0457,199.046,[],[],[],[],[],[],[],,199.046,199.0461,-0.070833333,-0.390000025,0,0,0,,0,32,32,139,1,4,word,REGULAR,cursive,regular_c.png,,,,,,
,,,,32389,001,2025-12-04_18h49.57.656,HW_LDT_1,2024.2.4,Win32,30.21148036,,,,,,,,,,,,,,,,,,,,,,199.0481,199.2465,199.2467,199.7462,,,,,,,,,,,,,,4.3799,1,,,,,,,,,,,,,,m,,,,,,,,,,,,,,,34,0,199.7471,204.1467,m,1,4.3799,,[],[],[],[],[],[],[],204.1468,206.1463,206.1464,206.1466,[],[],[],[],[],[],[],,206.1467,206.1469,-0.070833333,-0.390000025,0,0,0,,0,33,33,98,1,4,word,CRIMINAL,cursive,criminal_c.png,,,,,,
,,,,32389,001,2025-12-04_18h49.57.656,HW_LDT_1,2024.2.4,Win32,30.21148036,,,,,,,,,,,,,,,,,,,,,,206.1488,206.3464,206.3464,206.8462,,,,,,,,,,,,,,0.8817,0,,,,,,,,,,,,,,z,,,,,,,,,,,,,,,35,0,206.847,207.7458,m,0,0.8817,,[],[],[],[],[],[],[],207.746,209.7464,209.7465,209.7468,[],[],[],[],[],[],[],,209.7469,209.7471,-0.070833333,-0.390000025,0,0,0,,0,34,34,53,1,4,TL,cemerony,print,cemerony_p.png,,,,,,
,,,,32389,001,2025-12-04_18h49.57.656,HW_LDT_1,2024.2.4,Win32,30.21148036,,,,,,,,,,,,,,,,,,,,,,209.7494,209.946,209.9461,210.4452,,,,,,,,,,,,,,0.7435,1,,,,,,,,,,,,,,m,,,,,,,,,,,,,,,36,0,210.4457,211.2142,m,1,0.7435,,[],[],[],[],[],[],[],211.2143,213.2125,213.2125,213.2128,[],[],[],[],[],[],[],,213.2129,213.2132,-0.070833333,-0.390000025,0,0,0,,0,35,35,122,1,4,word,MOBILE,print,mobile_p.png,,,,,,
,,,,32389,001,2025-12-04_18h49.57.656,HW_LDT_1,2024.2.4,Win32,30.21148036,,,,,,,,,,,,,,,,,,,,,,213.2152,213.4129,213.413,213.9127,,,,,,,,,,,,,,0.9415,1,,,,,,,,,,,,,,z,,,,,,,,,,,,,,,37,0,213.9136,214.8794,z,1,0.9415,,[],[],[],[],[],[],[],214.8795,216.879,216.8791,216.8794,[],[],[],[],[],[],[],,216.8796,216.8798,-0.070833333,-0.390000025,0,0,0,,0,36,36,61,1,4,TL,lotace,cursive,lotace_c.png,,,,,,
,,,,32389,001,2025-12-04_18h49.57.656,HW_LDT_1,2024.2.4,Win32,30.21148036,,,,,,,,,,,,,,,,,,,,,,216.8818,217.0791,217.0793,217.5793,,,,,,,,,,,,,,0.7185,1,,,,,,,,,,,,,,m,,,,,,,,,,,,,,,38,0,217.5801,218.3143,m,1,0.7185,,[],[],[],[],[],[],[],218.3144,220.3123,220.3125,220.3128,[],[],[],[],[],[],[],,220.3128,220.3131,-0.070833333,-0.390000025,0,0,0,,0,37,37,156,1,4,word,TRIBUTE,print,tribute_p.png,,,,,,
,,,,32389,001,2025-12-04_18h49.57.656,HW_LDT_1,2024.2.4,Win32,30.21148036,,,,,,,,,,,,,,,,,,,,,,220.3152,220.5126,220.5126,221.0124,,,,,,,,,,,,,,1.3213,0,,,,,,,,,,,,,,m,,,,,,,,,,,,,,,39,1,221.0135,222.3451,z,0,1.3213,,[],[],[],[],[],[],[],222.3453,224.3455,224.3456,228.1116,[],[],[],[],[],[],[],z,228.1117,228.1118,-0.070833333,-0.390000025,0,0,0,,0,38,38,108,1,4,word,FORTUNE,cursive,fortune_c.png,3.7528,,,,,
,,,,32389,001,2025-12-04_18h49.57.656,HW_LDT_1,2024.2.4,Win32,30.21148036,,,,,,,,,,,,,,,,,,,,,,228.1138,228.3111,228.3112,228.811,,,,,,,,,,,,,,3.113,1,,,,,,,,,,,,,,z,,,,,,,,,,,,,,,40,0,228.8117,231.9455,z,1,3.113,,[],[],[],[],[],[],[],231.9457,233.9299,233.93,233.9302,[],[],[],[],[],[],[],,233.9302,233.9304,-0.070833333,-0.390000025,0,0,0,,0,39,39,15,1,4,RL,debave,cursive,debave_c.png,,,,,,
,,,,32389,001,2025-12-04_18h49.57.656,HW_LDT_1,2024.2.4,Win32,30.21148036,,,,,,,,,,,,,,,,,,,,,,233.9322,234.1278,234.1278,234.6285,,,,,,,,,,,,,,1.6118,1,,,,,,,,,,,,,,m,,,,,,,,,,,,,,,41,0,234.6293,236.2613,m,1,1.6118,,[],[],[],[],[],[],[],236.2613,238.2617,238.2618,238.262,[],[],[],[],[],[],[],,238.262,238.2622,-0.070833333,-0.390000025,0,0,0,,0,40,40,157,1,4,word,VALIDITY,print,validity_p.png,,,,,,
,,,,32389,001,2025-12-04_18h49.57.656,HW_LDT_1,2024.2.4,Win32,30.21148036,,,,,,,,,,,,,,,,,,,,,,238.2643,238.4611,238.4611,238.9616,,,,,,,,,,,,,,3.223,0,,,,,,,,,,,,,,m,,,,,,,,,,,,,,,42,0,238.9632,242.1943,z,0,3.223,,[],[],[],[],[],[],[],242.1944,244.1951,244.1952,244.1955,[],[],[],[],[],[],[],,244.1955,244.1957,-0.070833333,-0.390000025,0,0,0,,0,41,41,106,1,4,word,ELABORATE,cursive,elaborate_c.png,,,,,,
,,,,32389,001,2025-12-04_18h49.57.656,HW_LDT_1,2024.2.4,Win32,30.21148036,,,,,,,,,,,,,,,,,,,,,,244.1987,244.395,244.3952,244.8946,,,,,,,,,,,,,,1.6518,1,,,,,,,,,,,,,,m,,,,,,,,,,,,,,,43,0,244.8953,246.5611,m,1,1.6518,,[],[],[],[],[],[],[],246.5613,248.5613,248.5614,248.5617,[],[],[],[],[],[],[],,248.5617,248.5619,-0.070833333,-0.390000025,0,0,0,,0,42,42,141,1,4,word,RELIGION,print,religion_p.png,,,,,,
,,,,32389,001,2025-12-04_18h49.57.656,HW_LDT_1,2024.2.4,Win32,30.21148036,,,,,,,,,,,,,,,,,,,,,,248.5643,248.7611,248.7611,249.2611,,,,,,,,,,,,,,0.7863,1,,,,,,,,,,,,,,z,,,,,,,,,,,,,,,44,0,249.2618,250.0638,z,1,0.7863,,[],[],[],[],[],[],[],250.0639,252.0617,252.0619,252.0621,[],[],[],[],[],[],[],,252.0622,252.0624,-0.070833333,-0.390000025,0,0,0,,0,43,43,64,1,4,TL,moredate,print,moredate_p.png,,,,,,
,,,,32389,001,2025-12-04_18h49.57.656,HW_LDT_1,2024.2.4,Win32,30.21148036,,,,,,,,,,,,,,,,,,,,,,252.0651,252.2611,252.2617,252.7608,,,,,,,,,,,,,,1.5759,1,,,,,,,,,,,,,,m,,,,,,,,,,,,,,,45,1,252.7618,254.3618,m,1,1.5759,,[],[],[],[],[],[],[],254.3619,256.3611,256.3612,259.3939,[],[],[],[],[],[],[],m,259.3939,259.394,-0.070833333,-0.390000025,0,0,0,,0,44,44,150,1,4,word,SENTIMENT,print,sentiment_p.png,3.0164,,,,,
,,,,32389,001,2025-12-04_18h49.57.656,HW_LDT_1,2024.2.4,Win32,30.21148036,,,,,,,,,,,,,,,,,,,,,,259.3957,259.5935,259.5936,260.0937,,,,,,,,,,,,,,3.3421,0,,,,,,,,,,,,,,m,,,,,,,,,,,,,,,46,0,260.0943,263.4603,z,0,3.3421,,[],[],[],[],[],[],[],263.4603,265.4606,265.4607,265.4609,[],[],[],[],[],[],[],,265.461,265.4612,-0.070833333,-0.390000025,0,0,0,,0,45,45,99,1,4,word,DEBATE,cursive,debate_c.png,,,,,,
,,,,32389,001,2025-12-04_18h49.57.656,HW_LDT_1,2024.2.4,Win32,30.21148036,,,,,,,,,,,,,,,,,,,,,,265.4638,265.661,265.6612,266.1609,,,,,,,,,,,,,,1.3265,0,,,,,,,,,,,,,,m,,,,,,,,,,,,,,,47,0,266.1619,267.4938,z,0,1.3265,,[],[],[],[],[],[],[],267.4939,269.4934,269.4936,269.494,[],[],[],[],[],[],[],,269.4942,269.4946,-0.070833333,-0.390000025,0,0,0,,0,46,46,92,1,4,word,CATEGORY,cursive,category_c.png,,,,,,
,,,,32389,001,2025-12-04_18h49.57.656,HW_LDT_1,2024.2.4,Win32,30.21148036,,,,,,,,,,,,,,,,,,,,,,269.4969,269.6943,269.6944,270.1937,,,,,,,,,,,,,,4.0148,1,,,,,,,,,,,,,,m,,,,,,,,,,,,,,,48,0,270.1943,274.2271,m,1,4.0148,,[],[],[],[],[],[],[],274.2273,276.2289,276.229,276.2291,[],[],[],[],[],[],[],,276.2291,276.2292,-0.070833333,-0.390000025,0,0,0,,0,47,47,89,1,4,word,CAPACITY,cursive,capacity_c.png,,,,,,
,,,,32389,001,2025-12-04_18h49.57.656,HW_LDT_1,2024.2.4,Win32,30.21148036,,,,,,,,,,,,,,,,,,,,,,276.2312,276.4266,276.4266,276.929,,,,,,,,,,,,,,1.0725,1,,,,,,,,,,,,,,m,,,,,,,,,,,,,,,49,0,276.9299,278.0272,m,1,1.0725,,[],[],[],[],[],[],[],278.0273,280.0271,280.0271,280.028,[],[],[],[],[],[],[],,280.0281,280.0286,-0.070833333,-0.390000025,0,0,0,,0,48,48,126,1,4,word,OPTIMAL,print,optimal_p.png,,,,,,
,,,,32389,001,2025-12-04_18h49.57.656,HW_LDT_1,2024.2.4,Win32,30.21148036,,,,,,,,,,,,,,,,,,,,,,280.0314,280.2262,280.2262,280.7295,,,,,,,,,,,,,,0.6962,1,,,,,,,,,,,,,,z,,,,,,,,,,,,,,,50,1,280.7304,281.4281,z,1,0.6962,,[],[],[],[],[],[],[],281.4282,283.4264,283.4265,285.226,[],[],[],[],[],[],[],m,285.2261,285.2263,-0.070833333,-0.390000025,0,0,0,,0,49,49,44,1,4,RL,senvilent,print,senvilent_p.png,1.795,,,,,
,,,,32389,001,2025-12-04_18h49.57.656,HW_LDT_1,2024.2.4,Win32,30.21148036,,,,,,,,,,,,,,,,,,,,,,285.2278,285.426,285.426,285.9261,,,,,,,,,,,,,,0.7411,1,,,,,,,,,,,,,,z,,,,,,,,,,,,,,,51,0,285.9269,286.6927,z,1,0.7411,,[],[],[],[],[],[],[],286.6929,288.6926,288.6926,288.693,[],[],[],[],[],[],[],,288.6931,288.6934,-0.070833333,-0.390000025,0,0,0,,0,50,50,21,1,4,RL,insibate,print,insibate_p.png,,,,,,
,,,,32389,001,2025-12-04_18h49.57.656,HW_LDT_1,2024.2.4,Win32,30.21148036,,,,,,,,,,,,,,,,,,,,,,288.6957,288.8927,288.8928,289.3933,,,,,,,,,,,,,,0.5828,1,,,,,,,,,,,,,,z,,,,,,,,,,,,,,,52,0,289.3948,289.9939,z,1,0.5828,,[],[],[],[],[],[],[],289.9942,291.9937,291.9937,291.995,[],[],[],[],[],[],[],,291.9951,291.9961,-0.070833333,-0.390000025,0,0,0,,0,51,51,43,1,4,RL,rovastic,print,rovastic_p.png,,,,,,
,,,,32389,001,2025-12-04_18h49.57.656,HW_LDT_1,2024.2.4,Win32,30.21148036,,,,,,,,,,,,,,,,,,,,,,291.9989,292.1929,292.1931,292.6933,,,,,,,,,,,,,,2.4037,1,,,,,,,,,,,,,,z,,,,,,,,,,,,,,,53,0,292.694,295.1255,z,1,2.4037,,[],[],[],[],[],[],[],295.1257,297.127,297.1272,297.1279,[],[],[],[],[],[],[],,297.128,297.1284,-0.070833333,-0.390000025,0,0,0,,0,52,52,34,1,4,RL,posity,cursive,posity_c.png,,,,,,
,,,,32389,001,2025-12-04_18h49.57.656,HW_LDT_1,2024.2.4,Win32,30.21148036,,,,,,,,,,,,,,,,,,,,,,297.131,297.3283,297.3284,297.826,,,,,,,,,,,,,,1.2787,1,,,,,,,,,,,,,,m,,,,,,,,,,,,,,,54,0,297.8271,299.1267,m,1,1.2787,,[],[],[],[],[],[],[],299.1269,301.1276,301.1277,301.1281,[],[],[],[],[],[],[],,301.1281,301.1282,-0.070833333,-0.390000025,0,0,0,,0,53,53,120,1,4,word,MILITARY,print,military_p.png,,,,,,
,,,,32389,001,2025-12-04_18h49.57.656,HW_LDT_1,2024.2.4,Win32,30.21148036,,,,,,,,,,,,,,,,,,,,,,301.131,301.3275,301.3276,301.8266,,,,,,,,,,,,,,4.0137,0,,,,,,,,,,,,,,z,,,,,,,,,,,,,,,55,0,301.8279,305.8614,m,0,4.0137,,[],[],[],[],[],[],[],305.8615,307.8587,307.8588,307.8592,[],[],[],[],[],[],[],,307.8592,307.8594,-0.070833333,-0.390000025,0,0,0,,0,54,54,51,1,4,TL,adsivory,cursive,adsivory_c.png,,,,,,
,,,,32389,001,2025-12-04_18h49.57.656,HW_LDT_1,2024.2.4,Win32,30.21148036,,,,,,,,,,,,,,,,,,,,,,307.8617,308.0588,308.0589,308.5592,,,,,,,,,,,,,,0.6406,1,,,,,,,,,,,,,,z,,,,,,,,,,,,,,,56,0,308.5604,309.2267,z,1,0.6406,,[],[],[],[],[],[],[],309.2267,311.226,311.2261,311.2262,[],[],[],[],[],[],[],,311.2263,311.2267,-0.070833333,-0.390000025,0,0,0,,0,55,55,9,1,4,RL,cafigal,print,cafigal_p.png,,,,,,
,,,,32389,001,2025-12-04_18h49.57.656,HW_LDT_1,2024.2.4,Win32,30.21148036,,,,,,,,,,,,,,,,,,,,,,311.2291,311.4259,311.426,311.9259,,,,,,,,,,,,,,0.7403,1,,,,,,,,,,,,,,m,,,,,,,,,,,,,,,57,0,311.9267,312.6919,m,1,0.7403,,[],[],[],[],[],[],[],312.692,314.6925,314.6927,314.6932,[],[],[],[],[],[],[],,314.6932,314.6933,-0.070833333,-0.390000025,0,0,0,,0,56,56,123,1,4,word,MODERATE,print,moderate_p.png,,,,,,
,,,,32389,001,2025-12-04_18h49.57.656,HW_LDT_1,2024.2.4,Win32,30.21148036,,,,,,,,,,,,,,,,,,,,,,314.6961,314.8923,314.8924,315.3925,,,,,,,,,,,,,,0.6879,1,,,,,,,,,,,,,,m,,,,,,,,,,,,,,,58,0,315.3934,316.0921,m,1,0.6879,,[],[],[],[],[],[],[],316.0921,318.0938,318.0939,318.0943,[],[],[],[],[],[],[],,318.0945,318.0948,-0.070833333,-0.390000025,0,0,0,,0,57,57,103,1,4,word,DISPUTE,print,dispute_p.png,,,,,,
,,,,32389,001,2025-12-04_18h49.57.656,HW_LDT_1,2024.2.4,Win32,30.21148036,,,,,,,,,,,,,,,,,,,,,,318.0976,318.2944,318.2945,318.7931,,,,,,,,,,,,,,0.576,1,,,,,,,,,,,,,,m,,,,,,,,,,,,,,,59,1,318.7941,319.3927,m,1,0.576,,[],[],[],[],[],[],[],319.393,321.3928,321.3929,322.5263,[],[],[],[],[],[],[],m,322.5264,322.5265,-0.070833333,-0.390000025,0,0,0,,0,58,58,105,1,4,word,EDITOR,print,editor_p.png,1.1324,,,,,
,,,,32389,001,2025-12-04_18h49.57.656,HW_LDT_1,2024.2.4,Win32,30.21148036,,,,,,,,,,,,,,,,,,,,,,322.5276,322.7255,322.7256,323.2251,,,,,,,,,,,,,,1.0574,1,,,,,,,,,,,,,,z,,,,,,,,,,,,,,,60,0,323.2261,324.2922,z,1,1.0574,,[],[],[],[],[],[],[],324.2926,326.2931,326.2931,326.2933,[],[],[],[],[],[],[],,326.2937,326.294,-0.070833333,-0.390000025,0,0,0,,0,59,59,4,1,4,RL,betemit,cursive,betemit_c.png,,,,,,
,,,,32389,001,2025-12-04_18h49.57.656,HW_LDT_1,2024.2.4,Win32,30.21148036,,,,,,,,,,,,,,,,,,,,,,326.2964,326.4925,326.4926,326.9921,,,,,,,,,,,,,,6.5527,0,,,,,,,,,,,,,,z,,,,,,,,,,,,,,,61,0,326.9943,333.5593,m,0,6.5527,,[],[],[],[],[],[],[],333.5595,335.5583,335.5583,335.5588,[],[],[],[],[],[],[],,335.5589,335.5593,-0.070833333,-0.390000025,0,0,0,,0,60,60,10,1,4,RL,carminal,cursive,carminal_c.png,,,,,,
,,,,32389,001,2025-12-04_18h49.57.656,HW_LDT_1,2024.2.4,Win32,30.21148036,,,,,,,,,,,,,,,,,,,,,,335.5618,335.7584,335.7587,336.2585,,,,,,,,,,,,,,6.3396,0,,,,,,,,,,,,,,z,,,,,,,,,,,,,,,62,0,336.2594,342.6249,m,0,6.3396,,[],[],[],[],[],[],[],342.6252,344.6244,344.6246,344.625,[],[],[],[],[],[],[],,344.6252,344.6253,-0.070833333,-0.390000025,0,0,0,,0,61,61,55,1,4,TL,corevage,cursive,corevage_c.png,,,,,,
,,,,32389,001,2025-12-04_18h49.57.656,HW_LDT_1,2024.2.4,Win32,30.21148036,,,,,,,,,,,,,,,,,,,,,,344.6282,344.8263,344.8263,345.325,,,,,,,,,,,,,,0.9588,0,,,,,,,,,,,,,,m,,,,,,,,,,,,,,,63,0,345.3259,346.2936,z,0,0.9588,,[],[],[],[],[],[],[],346.2939,348.2914,348.2915,348.2918,[],[],[],[],[],[],[],,348.2919,348.292,-0.070833333,-0.390000025,0,0,0,,0,62,62,133,1,4,word,PROVIDE,cursive,provide_c.png,,,,,,
,,,,32389,001,2025-12-04_18h49.57.656,HW_LDT_1,2024.2.4,Win32,30.21148036,,,,,,,,,,,,,,,,,,,,,,348.2949,348.4914,348.4919,348.9914,,,,,,,,,,,,,,1.3572,1,,,,,,,,,,,,,,m,,,,,,,,,,,,,,,64,0,348.9926,350.3576,m,1,1.3572,,[],[],[],[],[],[],[],350.3578,352.3582,352.3583,352.3587,[],[],[],[],[],[],[],,352.3588,352.3589,-0.070833333,-0.390000025,0,0,0,,0,63,63,82,1,4,word,AMATEUR,cursive,amateur_c.png,,,,,,
,,,,32389,001,2025-12-04_18h49.57.656,HW_LDT_1,2024.2.4,Win32,30.21148036,,,,,,,,,,,,,,,,,,,,,,352.3602,352.5575,352.5576,353.0579,,,,,,,,,,,,,,0.647,1,,,,,,,,,,,,,,z,,,,,,,,,,,,,,,65,0,353.0588,353.7249,z,1,0.647,,[],[],[],[],[],[],[],353.725,355.7241,355.7242,355.7243,[],[],[],[],[],[],[],,355.7244,355.7245,-0.070833333,-0.390000025,0,0,0,,0,64,64,74,1,4,TL,rerite,print,rerite_p.png,,,,,,
,,,,32389,001,2025-12-04_18h49.57.656,HW_LDT_1,2024.2.4,Win32,30.21148036,,,,,,,,,,,,,,,,,,,,,,355.7259,355.9243,355.9244,356.4245,,,,,,,,,,,,,,1.9892,1,,,,,,,,,,,,,,z,,,,,,,,,,,,,,,66,1,356.4253,358.424,z,1,1.9892,,[],[],[],[],[],[],[],358.4242,360.4245,360.4245,363.1576,[],[],[],[],[],[],[],z,363.1577,363.1578,-0.070833333,-0.390000025,0,0,0,,0,65,65,45,1,4,RL,spetisic,cursive,spetisic_c.png,2.7069,,,,,
,,,,32389,001,2025-12-04_18h49.57.656,HW_LDT_1,2024.2.4,Win32,30.21148036,,,,,,,,,,,,,,,,,,,,,,363.1606,363.358,363.358,363.8568,,,,,,,,,,,,,,2.0402,1,,,,,,,,,,,,,,z,,,,,,,,,,,,,,,67,0,363.8584,365.9248,z,1,2.0402,,[],[],[],[],[],[],[],365.9249,367.9244,367.9245,367.9249,[],[],[],[],[],[],[],,367.9249,367.925,-0.070833333,-0.390000025,0,0,0,,0,66,66,47,1,4,RL,stopave,print,stopave_p.png,,,,,,
,,,,32389,001,2025-12-04_18h49.57.656,HW_LDT_1,2024.2.4,Win32,30.21148036,,,,,,,,,,,,,,,,,,,,,,367.9263,368.1244,368.1244,368.6248,,,,,,,,,,,,,,2.1438,1,,,,,,,,,,,,,,m,,,,,,,,,,,,,,,68,0,368.6253,370.7911,m,1,2.1438,,[],[],[],[],[],[],[],370.7912,372.7906,372.7907,372.791,[],[],[],[],[],[],[],,372.791,372.7913,-0.070833333,-0.390000025,0,0,0,,0,67,67,158,1,4,word,VELOCITY,cursive,velocity_c.png,,,,,,
,,,,32389,001,2025-12-04_18h49.57.656,HW_LDT_1,2024.2.4,Win32,30.21148036,,,,,,,,,,,,,,,,,,,,,,372.7939,372.9905,372.9905,373.4906,,,,,,,,,,,,,,0.7131,1,,,,,,,,,,,,,,z,,,,,,,,,,,,,,,69,0,373.4914,374.2233,z,1,0.7131,,[],[],[],[],[],[],[],374.2234,376.2237,376.2237,376.224,[],[],[],[],[],[],[],,376.224,376.2241,-0.070833333,-0.390000025,0,0,0,,0,68,68,58,1,4,TL,edivent,print,edivent_p.png,,,,,,
,,,,32389,001,2025-12-04_18h49.57.656,HW_LDT_1,2024.2.4,Win32,30.21148036,,,,,,,,,,,,,,,,,,,,,,376.226,376.4239,376.424,376.9233,,,,,,,,,,,,,,1.3605,1,,,,,,,,,,,,,,m,,,,,,,,,,,,,,,70,0,376.924,378.29,m,1,1.3605,,[],[],[],[],[],[],[],378.29,380.2905,380.2905,380.2908,[],[],[],[],[],[],[],,380.2909,380.291,-0.070833333,-0.390000025,0,0,0,,0,69,69,96,1,4,word,CONSIDER,cursive,consider_c.png,,,,,,
,,,,32389,001,2025-12-04_18h49.57.656,HW_LDT_1,2024.2.4,Win32,30.21148036,,,,,,,,,,,,,,,,,,,,,,380.2932,380.4906,380.4906,380.9901,,,,,,,,,,,,,,0.9064,1,,,,,,,,,,,,,,m,,,,,,,,,,,,,,,71,0,380.9908,381.9238,m,1,0.9064,,[],[],[],[],[],[],[],381.9239,383.9237,383.9238,383.924,[],[],[],[],[],[],[],,383.9242,383.9243,-0.070833333,-0.390000025,0,0,0,,0,70,70,107,1,4,word,EVIDENT,print,evident_p.png,,,,,,
,,,,32389,001,2025-12-04_18h49.57.656,HW_LDT_1,2024.2.4,Win32,30.21148036,,,,,,,,,,,,,,,,,,,,,,383.9264,384.1235,384.1235,384.6236,,,,,,,,,,,,,,1.2988,1,,,,,,,,,,,,,,z,,,,,,,,,,,,,,,72,0,384.6243,385.9242,z,1,1.2988,,[],[],[],[],[],[],[],385.9244,387.9237,387.9238,387.9241,[],[],[],[],[],[],[],,387.9242,387.9243,-0.070833333,-0.390000025,0,0,0,,0,71,71,23,1,4,RL,linefal,cursive,linefal_c.png,,,,,,
,,,,32389,001,2025-12-04_18h49.57.656,HW_LDT_1,2024.2.4,Win32,30.21148036,,,,,,,,,,,,,,,,,,,,,,387.9271,388.1243,388.1244,388.6234,,,,,,,,,,,,,,4.0067,1,,,,,,,,,,,,,,m,,,,,,,,,,,,,,,73,0,388.6242,392.6565,m,1,4.0067,,[],[],[],[],[],[],[],392.6567,394.6563,394.6563,394.6565,[],[],[],[],[],[],[],,394.6565,394.6566,-0.070833333,-0.390000025,0,0,0,,0,72,72,83,1,4,word,ANIMAL,cursive,animal_c.png,,,,,,
,,,,32389,001,2025-12-04_18h49.57.656,HW_LDT_1,2024.2.4,Win32,30.21148036,,,,,,,,,,,,,,,,,,,,,,394.6589,394.8566,394.8567,395.3565,,,,,,,,,,,,,,0.6733,1,,,,,,,,,,,,,,m,,,,,,,,,,,,,,,74,0,395.358,396.057,m,1,0.6733,,[],[],[],[],[],[],[],396.0571,398.0566,398.0567,398.0569,[],[],[],[],[],[],[],,398.057,398.057,-0.070833333,-0.390000025,0,0,0,,0,73,73,135,1,4,word,QUALITY,print,quality_p.png,,,,,,
,,,,32389,001,2025-12-04_18h49.57.656,HW_LDT_1,2024.2.4,Win32,30.21148036,,,,,,,,,,,,,,,,,,,,,,398.0594,398.2559,398.256,398.7566,,,,,,,,,,,,,,0.5478,1,,,,,,,,,,,,,,z,,,,,,,,,,,,,,,75,1,398.7574,399.3237,z,1,0.5478,,[],[],[],[],[],[],[],399.3237,401.3229,401.3229,404.3219,[],[],[],[],[],[],[],z,404.322,404.3221,-0.070833333,-0.390000025,0,0,0,,0,74,74,28,1,4,RL,mifikary,print,mifikary_p.png,2.995,,,,,
,,,,32389,001,2025-12-04_18h49.57.656,HW_LDT_1,2024.2.4,Win32,30.21148036,,,,,,,,,,,,,,,,,,,,,,404.3233,404.523,404.5231,405.0218,,,,,,,,,,,,,,0.7159,1,,,,,,,,,,,,,,m,,,,,,,,,,,,,,,76,0,405.0224,405.7557,m,1,0.7159,,[],[],[],[],[],[],[],405.7558,407.7553,407.7554,407.7555,[],[],[],[],[],[],[],,407.7555,407.7556,-0.070833333,-0.390000025,0,0,0,,0,75,75,127,1,4,word,ORIGINAL,print,original_p.png,,,,,,
,,,,32389,001,2025-12-04_18h49.57.656,HW_LDT_1,2024.2.4,Win32,30.21148036,,,,,,,,,,,,,,,,,,,,,,407.7575,407.9556,407.9557,408.4562,,,,,,,,,,,,,,1.5736,1,,,,,,,,,,,,,,z,,,,,,,,,,,,,,,77,0,408.4569,410.0559,z,1,1.5736,,[],[],[],[],[],[],[],410.0561,412.056,412.0562,412.0566,[],[],[],[],[],[],[],,412.0567,412.0568,-0.070833333,-0.390000025,0,0,0,,0,76,76,39,1,4,RL,relone,cursive,relone_c.png,,,,,,
,,,,32389,001,2025-12-04_18h49.57.656,HW_LDT_1,2024.2.4,Win32,30.21148036,,,,,,,,,,,,,,,,,,,,,,412.0591,412.2562,412.2562,412.7561,,,,,,,,,,,,,,0.7425,1,,,,,,,,,,,,,,m,,,,,,,,,,,,,,,78,1,412.7569,413.5233,m,1,0.7425,,[],[],[],[],[],[],[],413.5234,415.5225,415.5226,416.556,[],[],[],[],[],[],[],m,416.5562,416.5564,-0.070833333,-0.390000025,0,0,0,,0,77,77,136,1,4,word,RADICAL,print,radical_p.png,1.0183,,,,,
,,,,32389,001,2025-12-04_18h49.57.656,HW_LDT_1,2024.2.4,Win32,30.21148036,,,,,,,,,,,,,,,,,,,,,,416.5589,416.756,416.7561,417.2558,,,,,,,,,,,,,,1.2535,1,,,,,,,,,,,,,,z,,,,,,,,,,,,,,,79,1,417.2565,418.5226,z,1,1.2535,,[],[],[],[],[],[],[],418.5227,420.5223,420.5224,421.5216,[],[],[],[],[],[],[],m,421.5217,421.5218,-0.070833333,-0.390000025,0,0,0,,0,78,78,54,1,4,TL,codemy,print,codemy_p.png,0.985,,,,,
,,,,32389,001,2025-12-04_18h49.57.656,HW_LDT_1,2024.2.4,Win32,30.21148036,,,,,,,,,,,,,,,,,,,,,,421.523,421.7223,421.7224,422.2214,,,,,,,,,,,,,,0.8933,1,,,,,,,,,,,,,,z,,,,,,,,,,,,,,,80,0,422.2221,423.1236,z,1,0.8933,,[],[],[],[],[],[],[],423.1237,425.1219,425.1221,425.1223,[],[],[],[],[],[],[],,425.1223,506.1203,-0.068333308,-0.390000025,0,0,0,space,0,79,79,36,1,4,RL,rabigly,cursive,rabigly_c.png,,,80.9587,,,
,,,,32389,001,2025-12-04_18h49.57.656,HW_LDT_1,2024.2.4,Win32,30.21148036,,,,,,,,,,,,,,,,,,,,,,506.1235,506.3193,506.3193,506.8202,,,,,,,,,,,,,,1.8161,1,,,,,,,,,,,,,,z,,,,,,,,,,,,,,,81,0,506.8212,508.6542,z,1,1.8161,,[],[],[],[],[],[],[],508.6544,510.6524,510.6525,510.6527,[],[],[],[],[],[],[],,510.6528,510.653,-0.068333308,-0.390000025,0,0,0,,0,80,80,5,1,4,RL,bebine,print,bebine_p.png,,,,,,
,,,,32389,001,2025-12-04_18h49.57.656,HW_LDT_1,2024.2.4,Win32,30.21148036,,,,,,,,,,,,,,,,,,,,,,510.6562,510.8531,510.8532,511.3527,,,,,,,,,,,,,,2.3461,0,,,,,,,,,,,,,,m,,,,,,,,,,,,,,,82,0,511.3541,513.7197,z,0,2.3461,,[],[],[],[],[],[],[],513.7198,515.7198,515.7199,515.7205,[],[],[],[],[],[],[],,515.7205,515.7207,-0.068333308,-0.390000025,0,0,0,,0,81,81,151,1,4,word,SPECIFIC,cursive,specific_c.png,,,,,,
,,,,32389,001,2025-12-04_18h49.57.656,HW_LDT_1,2024.2.4,Win32,30.21148036,,,,,,,,,,,,,,,,,,,,,,515.7234,515.9191,515.9192,516.4188,,,,,,,,,,,,,,0.7395,1,,,,,,,,,,,,,,z,,,,,,,,,,,,,,,83,0,516.4197,517.1863,z,1,0.7395,,[],[],[],[],[],[],[],517.1864,519.1865,519.1865,519.1868,[],[],[],[],[],[],[],,519.187,519.1871,-0.068333308,-0.390000025,0,0,0,,0,82,82,22,1,4,RL,linedal,cursive,linedal_c.png,,,,,,
,,,,32389,001,2025-12-04_18h49.57.656,HW_LDT_1,2024.2.4,Win32,30.21148036,,,,,,,,,,,,,,,,,,,,,,519.189,519.3858,519.3859,519.8855,,,,,,,,,,,,,,3.2095,0,,,,,,,,,,,,,,m,,,,,,,,,,,,,,,84,0,519.8872,523.1208,z,0,3.2095,,[],[],[],[],[],[],[],523.1209,525.1188,525.1188,525.1194,[],[],[],[],[],[],[],,525.1194,525.1196,-0.068333308,-0.390000025,0,0,0,,0,83,83,101,1,4,word,DELICATE,cursive,delicate_c.png,,,,,,
,,,,32389,001,2025-12-04_18h49.57.656,HW_LDT_1,2024.2.4,Win32,30.21148036,,,,,,,,,,,,,,,,,,,,,,525.1221,525.3188,525.3189,525.8182,,,,,,,,,,,,,,0.7947,1,,,,,,,,,,,,,,z,,,,,,,,,,,,,,,85,0,525.8191,526.6196,z,1,0.7947,,[],[],[],[],[],[],[],526.6197,528.618,528.6181,528.6184,[],[],[],[],[],[],[],,528.6184,528.6185,-0.068333308,-0.390000025,0,0,0,,0,84,84,75,1,4,TL,sanile,print,sanile_p.png,,,,,,
,,,,32389,001,2025-12-04_18h49.57.656,HW_LDT_1,2024.2.4,Win32,30.21148036,,,,,,,,,,,,,,,,,,,,,,528.6204,528.8181,528.8182,529.3179,,,,,,,,,,,,,,3.9501,1,,,,,,,,,,,,,,z,,,,,,,,,,,,,,,86,0,529.3186,533.2851,z,1,3.9501,,[],[],[],[],[],[],[],533.2852,535.2852,535.2852,535.2859,[],[],[],[],[],[],[],,535.286,535.2861,-0.068333308,-0.390000025,0,0,0,,0,85,85,37,1,4,RL,renutal,cursive,renutal_c.png,,,,,,
,,,,32389,001,2025-12-04_18h49.57.656,HW_LDT_1,2024.2.4,Win32,30.21148036,,,,,,,,,,,,,,,,,,,,,,535.2893,535.486,535.4861,535.9852,,,,,,,,,,,,,,0.6249,1,,,,,,,,,,,,,,m,,,,,,,,,,,,,,,87,0,535.9862,536.6192,m,1,0.6249,,[],[],[],[],[],[],[],536.6193,538.6185,538.6186,538.6192,[],[],[],[],[],[],[],,538.6193,538.6195,-0.068333308,-0.390000025,0,0,0,,0,86,86,149,1,4,word,SENATOR,print,senator_p.png,,,,,,
,,,,32389,001,2025-12-04_18h49.57.656,HW_LDT_1,2024.2.4,Win32,30.21148036,,,,,,,,,,,,,,,,,,,,,,538.6222,538.8187,538.8187,539.3202,,,,,,,,,,,,,,2.6245,1,,,,,,,,,,,,,,z,,,,,,,,,,,,,,,88,0,539.3213,541.954,z,1,2.6245,,[],[],[],[],[],[],[],541.9541,543.9521,543.9525,543.9527,[],[],[],[],[],[],[],,543.9527,543.9528,-0.068333308,-0.390000025,0,0,0,,0,87,87,35,1,4,RL,probice,cursive,probice_c.png,,,,,,
,,,,32389,001,2025-12-04_18h49.57.656,HW_LDT_1,2024.2.4,Win32,30.21148036,,,,,,,,,,,,,,,,,,,,,,543.9539,544.1515,544.1515,544.6511,,,,,,,,,,,,,,2.6516,1,,,,,,,,,,,,,,m,,,,,,,,,,,,,,,89,0,544.6522,547.3191,m,1,2.6516,,[],[],[],[],[],[],[],547.3192,549.3182,549.3184,549.3189,[],[],[],[],[],[],[],,549.3189,549.3191,-0.068333308,-0.390000025,0,0,0,,0,88,88,85,1,4,word,BENEFIT,cursive,benefit_c.png,,,,,,
,,,,32389,001,2025-12-04_18h49.57.656,HW_LDT_1,2024.2.4,Win32,30.21148036,,,,,,,,,,,,,,,,,,,,,,549.3217,549.5181,549.5181,550.0177,,,,,,,,,,,,,,0.8929,1,,,,,,,,,,,,,,z,,,,,,,,,,,,,,,90,0,550.0189,550.9191,z,1,0.8929,,[],[],[],[],[],[],[],550.9192,552.9174,552.9174,552.9177,[],[],[],[],[],[],[],,552.9177,552.9178,-0.068333308,-0.390000025,0,0,0,,0,89,89,65,1,4,TL,orepator,print,orepator_p.png,,,,,,
,,,,32389,001,2025-12-04_18h49.57.656,HW_LDT_1,2024.2.4,Win32,30.21148036,,,,,,,,,,,,,,,,,,,,,,552.9203,553.1193,553.1194,553.6184,,,,,,,,,,,,,,1.6721,1,,,,,,,,,,,,,,z,,,,,,,,,,,,,,,91,0,553.6193,555.3174,z,1,1.6721,,[],[],[],[],[],[],[],555.3175,557.3182,557.3182,557.3186,[],[],[],[],[],[],[],,557.3187,557.3191,-0.068333308,-0.390000025,0,0,0,,0,90,90,72,1,4,TL,relugar,cursive,relugar_c.png,,,,,,
,,,,32389,001,2025-12-04_18h49.57.656,HW_LDT_1,2024.2.4,Win32,30.21148036,,,,,,,,,,,,,,,,,,,,,,557.3228,557.5175,557.5176,558.0183,,,,,,,,,,,,,,3.5172,1,,,,,,,,,,,,,,m,,,,,,,,,,,,,,,92,0,558.0194,561.5507,m,1,3.5172,,[],[],[],[],[],[],[],561.5511,563.5511,563.5512,563.5519,[],[],[],[],[],[],[],,563.552,563.5522,-0.068333308,-0.390000025,0,0,0,,0,91,91,128,1,4,word,PACIFIC,cursive,pacific_c.png,,,,,,
,,,,32389,001,2025-12-04_18h49.57.656,HW_LDT_1,2024.2.4,Win32,30.21148036,,,,,,,,,,,,,,,,,,,,,,563.5548,563.7506,563.7507,564.2506,,,,,,,,,,,,,,0.9516,1,,,,,,,,,,,,,,m,,,,,,,,,,,,,,,93,1,564.2517,565.2177,m,1,0.9516,,[],[],[],[],[],[],[],565.2178,567.2174,567.2174,568.3169,[],[],[],[],[],[],[],z,568.317,568.3171,-0.068333308,-0.390000025,0,0,0,,0,92,92,130,1,4,word,POLICY,cursive,policy_c.png,1.0758,,,,,
,,,,32389,001,2025-12-04_18h49.57.656,HW_LDT_1,2024.2.4,Win32,30.21148036,,,,,,,,,,,,,,,,,,,,,,568.3196,568.5172,568.5173,569.0174,,,,,,,,,,,,,,4.0092,1,,,,,,,,,,,,,,m,,,,,,,,,,,,,,,94,0,569.0188,573.0512,m,1,4.0092,,[],[],[],[],[],[],[],573.0514,575.0504,575.0505,575.0512,[],[],[],[],[],[],[],,575.0513,575.0515,-0.068333308,-0.390000025,0,0,0,,0,93,93,138,1,4,word,REFUSAL,cursive,refusal_c.png,,,,,,
,,,,32389,001,2025-12-04_18h49.57.656,HW_LDT_1,2024.2.4,Win32,30.21148036,,,,,,,,,,,,,,,,,,,,,,575.0541,575.2505,575.2505,575.7504,,,,,,,,,,,,,,0.7077,1,,,,,,,,,,,,,,z,,,,,,,,,,,,,,,95,0,575.7517,576.4842,z,1,0.7077,,[],[],[],[],[],[],[],576.4845,578.484,578.4841,578.4845,[],[],[],[],[],[],[],,578.4846,578.4847,-0.068333308,-0.390000025,0,0,0,,0,94,94,3,1,4,RL,bewoted,print,bewoted_p.png,,,,,,
,,,,32389,001,2025-12-04_18h49.57.656,HW_LDT_1,2024.2.4,Win32,30.21148036,,,,,,,,,,,,,,,,,,,,,,578.4879,578.6842,578.6843,579.1831,,,,,,,,,,,,,,0.7742,1,,,,,,,,,,,,,,m,,,,,,,,,,,,,,,96,1,579.1841,579.9841,m,1,0.7742,,[],[],[],[],[],[],[],579.9841,581.9839,581.984,584.0181,[],[],[],[],[],[],[],m,584.0184,584.0195,-0.068333308,-0.390000025,0,0,0,,0,95,95,90,1,4,word,CAPITAL,print,capital_p.png,2.0209,,,,,
,,,,32389,001,2025-12-04_18h49.57.656,HW_LDT_1,2024.2.4,Win32,30.21148036,,,,,,,,,,,,,,,,,,,,,,584.0219,584.2167,584.2167,584.7188,,,,,,,,,,,,,,2.1505,1,,,,,,,,,,,,,,z,,,,,,,,,,,,,,,97,0,584.7206,586.8844,z,1,2.1505,,[],[],[],[],[],[],[],586.8845,588.8835,588.8839,588.8845,[],[],[],[],[],[],[],,588.8847,588.8848,-0.068333308,-0.390000025,0,0,0,,0,96,96,77,1,4,TL,spemicen,cursive,spemicen_c.png,,,,,,
,,,,32389,001,2025-12-04_18h49.57.656,HW_LDT_1,2024.2.4,Win32,30.21148036,,,,,,,,,,,,,,,,,,,,,,588.8876,589.0834,589.0834,589.5832,,,,,,,,,,,,,,0.679,1,,,,,,,,,,,,,,z,,,,,,,,,,,,,,,98,0,589.5853,590.2837,z,1,0.679,,[],[],[],[],[],[],[],590.2838,592.2831,592.2835,592.284,[],[],[],[],[],[],[],,592.284,592.2841,-0.068333308,-0.390000025,0,0,0,,0,97,97,20,1,4,RL,gralekul,print,gralekul_p.png,,,,,,
,,,,32389,001,2025-12-04_18h49.57.656,HW_LDT_1,2024.2.4,Win32,30.21148036,,,,,,,,,,,,,,,,,,,,,,592.2871,592.4836,592.4836,592.983,,,,,,,,,,,,,,0.8955,1,,,,,,,,,,,,,,z,,,,,,,,,,,,,,,99,0,592.9841,593.8827,z,1,0.8955,,[],[],[],[],[],[],[],593.8829,595.8828,595.8828,595.8831,[],[],[],[],[],[],[],,595.8832,595.8834,-0.068333308,-0.390000025,0,0,0,,0,98,98,79,1,4,TL,tritube,print,tritube_p.png,,,,,,
,,,,32389,001,2025-12-04_18h49.57.656,HW_LDT_1,2024.2.4,Win32,30.21148036,,,,,,,,,,,,,,,,,,,,,,595.8873,596.0821,596.0822,596.5826,,,,,,,,,,,,,,0.8137,1,,,,,,,,,,,,,,z,,,,,,,,,,,,,,,100,0,596.5834,597.4171,z,1,0.8137,,[],[],[],[],[],[],[],597.4172,599.4157,599.4158,599.416,[],[],[],[],[],[],[],,599.416,599.416,-0.068333308,-0.390000025,0,0,0,,0,99,99,18,1,4,RL,disluge,print,disluge_p.png,,,,,,
,,,,32389,001,2025-12-04_18h49.57.656,HW_LDT_1,2024.2.4,Win32,30.21148036,,,,,,,,,,,,,,,,,,,,,,599.4176,599.6155,599.6155,600.1162,,,,,,,,,,,,,,1.8496,1,,,,,,,,,,,,,,z,,,,,,,,,,,,,,,101,0,600.117,601.982,z,1,1.8496,,[],[],[],[],[],[],[],601.9821,603.9827,603.9827,603.9829,[],[],[],[],[],[],[],,603.983,603.9831,-0.068333308,-0.390000025,0,0,0,,0,100,100,13,1,4,RL,crisival,cursive,crisival_c.png,,,,,,
,,,,32389,001,2025-12-04_18h49.57.656,HW_LDT_1,2024.2.4,Win32,30.21148036,,,,,,,,,,,,,,,,,,,,,,603.985,604.1858,604.186,604.6829,,,,,,,,,,,,,,1.1072,0,,,,,,,,,,,,,,m,,,,,,,,,,,,,,,102,0,604.6836,605.8165,z,0,1.1072,,[],[],[],[],[],[],[],605.8166,607.8161,607.8162,607.8164,[],[],[],[],[],[],[],,607.8165,607.8166,-0.068333308,-0.390000025,0,0,0,,0,101,101,114,1,4,word,LOCATE,cursive,locate_c.png,,,,,,
,,,,32389,001,2025-12-04_18h49.57.656,HW_LDT_1,2024.2.4,Win32,30.21148036,,,,,,,,,,,,,,,,,,,,,,607.8194,608.0159,608.0159,608.5154,,,,,,,,,,,,,,1.0628,1,,,,,,,,,,,,,,m,,,,,,,,,,,,,,,103,0,608.5163,609.5833,m,1,1.0628,,[],[],[],[],[],[],[],609.585,611.5824,611.5825,611.5826,[],[],[],[],[],[],[],,611.5826,611.5827,-0.068333308,-0.390000025,0,0,0,,0,102,102,148,1,4,word,SALINE,print,saline_p.png,,,,,,
,,,,32389,001,2025-12-04_18h49.57.656,HW_LDT_1,2024.2.4,Win32,30.21148036,,,,,,,,,,,,,,,,,,,,,,611.5841,611.7829,611.7831,612.282,,,,,,,,,,,,,,0.7415,1,,,,,,,,,,,,,,z,,,,,,,,,,,,,,,104,1,612.2827,613.0501,z,1,0.7415,,[],[],[],[],[],[],[],613.0502,615.051,615.0511,622.2825,[],[],[],[],[],[],[],z,622.2827,622.2828,-0.068333308,-0.390000025,0,0,0,,0,103,103,63,1,4,TL,miskate,print,miskate_p.png,7.2072,,,,,
,,,,32389,001,2025-12-04_18h49.57.656,HW_LDT_1,2024.2.4,Win32,30.21148036,,,,,,,,,,,,,,,,,,,,,,622.2848,622.4824,622.4825,622.9823,,,,,,,,,,,,,,3.3422,1,,,,,,,,,,,,,,m,,,,,,,,,,,,,,,105,0,622.9832,626.3497,m,1,3.3422,,[],[],[],[],[],[],[],626.3499,628.3488,628.3489,628.3492,[],[],[],[],[],[],[],,628.3493,628.3495,-0.068333308,-0.390000025,0,0,0,,0,104,104,118,1,4,word,MEDICINE,cursive,medicine_c.png,,,,,,
,,,,32389,001,2025-12-04_18h49.57.656,HW_LDT_1,2024.2.4,Win32,30.21148036,,,,,,,,,,,,,,,,,,,,,,628.3522,628.5486,628.5488,629.0489,,,,,,,,,,,,,,0.7742,1,,,,,,,,,,,,,,m,,,,,,,,,,,,,,,106,0,629.0499,629.8486,m,1,0.7742,,[],[],[],[],[],[],[],629.8493,631.8485,631.8486,631.8488,[],[],[],[],[],[],[],,631.849,631.8492,-0.068333308,-0.390000025,0,0,0,,0,105,105,100,1,4,word,DECADE,cursive,decade_c.png,,,,,,
,,,,32389,001,2025-12-04_18h49.57.656,HW_LDT_1,2024.2.4,Win32,30.21148036,,,,,,,,,,,,,,,,,,,,,,631.8511,632.0489,632.0489,632.5499,,,,,,,,,,,,,,1.027,1,,,,,,,,,,,,,,m,,,,,,,,,,,,,,,107,0,632.5509,633.5818,m,1,1.027,,[],[],[],[],[],[],[],633.582,635.5813,635.5814,635.5817,[],[],[],[],[],[],[],,635.5817,635.5818,-0.068333308,-0.390000025,0,0,0,,0,106,106,124,1,4,word,NUMERICAL,cursive,numerical_c.png,,,,,,
,,,,32389,001,2025-12-04_18h49.57.656,HW_LDT_1,2024.2.4,Win32,30.21148036,,,,,,,,,,,,,,,,,,,,,,635.5845,635.7822,635.7823,636.2817,,,,,,,,,,,,,,1.1291,1,,,,,,,,,,,,,,z,,,,,,,,,,,,,,,108,0,636.2829,637.4154,z,1,1.1291,,[],[],[],[],[],[],[],637.4156,639.4152,639.4152,639.4157,[],[],[],[],[],[],[],,639.4159,639.4162,-0.068333308,-0.390000025,0,0,0,,0,107,107,50,1,4,RL,vecelan,cursive,vecelan_c.png,,,,,,
,,,,32389,001,2025-12-04_18h49.57.656,HW_LDT_1,2024.2.4,Win32,30.21148036,,,,,,,,,,,,,,,,,,,,,,639.4183,639.6149,639.6149,640.115,,,,,,,,,,,,,,0.8965,1,,,,,,,,,,,,,,m,,,,,,,,,,,,,,,109,0,640.1158,641.0145,m,1,0.8965,,[],[],[],[],[],[],[],641.0147,643.015,643.0151,643.0153,[],[],[],[],[],[],[],,643.0154,643.0156,-0.068333308,-0.390000025,0,0,0,,0,108,108,121,1,4,word,MISTAKE,print,mistake_p.png,,,,,,
,,,,32389,001,2025-12-04_18h49.57.656,HW_LDT_1,2024.2.4,Win32,30.21148036,,,,,,,,,,,,,,,,,,,,,,643.0174,643.2145,643.2146,643.7142,,,,,,,,,,,,,,2.4068,1,,,,,,,,,,,,,,z,,,,,,,,,,,,,,,110,0,643.7149,646.1483,z,1,2.4068,,[],[],[],[],[],[],[],646.1484,648.1481,648.1482,648.1484,[],[],[],[],[],[],[],,648.1485,648.1486,-0.068333308,-0.390000025,0,0,0,,0,109,109,6,1,4,RL,caleberia,cursive,caleberia_c.png,,,,,,
,,,,32389,001,2025-12-04_18h49.57.656,HW_LDT_1,2024.2.4,Win32,30.21148036,,,,,,,,,,,,,,,,,,,,,,648.151,648.3478,648.3479,648.8482,,,,,,,,,,,,,,0.7288,1,,,,,,,,,,,,,,m,,,,,,,,,,,,,,,111,1,648.8489,649.5809,m,1,0.7288,,[],[],[],[],[],[],[],649.581,651.5813,651.5814,652.6488,[],[],[],[],[],[],[],m,652.6491,652.6492,-0.068333308,-0.390000025,0,0,0,,0,110,110,88,1,4,word,CAMERA,print,camera_p.png,1.0409,,,,,
,,,,32389,001,2025-12-04_18h49.57.656,HW_LDT_1,2024.2.4,Win32,30.21148036,,,,,,,,,,,,,,,,,,,,,,652.652,652.8482,652.8482,653.348,,,,,,,,,,,,,,0.6741,1,,,,,,,,,,,,,,m,,,,,,,,,,,,,,,112,1,653.3489,654.0478,m,1,0.6741,,[],[],[],[],[],[],[],654.0479,656.0477,656.0477,656.8147,[],[],[],[],[],[],[],m,656.8149,656.8154,-0.068333308,-0.390000025,0,0,0,,0,111,111,86,1,4,word,BESIDE,print,beside_p.png,0.7521,,,,,
,,,,32389,001,2025-12-04_18h49.57.656,HW_LDT_1,2024.2.4,Win32,30.21148036,,,,,,,,,,,,,,,,,,,,,,656.8174,657.0148,657.0149,657.514,,,,,,,,,,,,,,2.1812,1,,,,,,,,,,,,,,z,,,,,,,,,,,,,,,113,1,657.5145,659.7143,z,1,2.1812,,[],[],[],[],[],[],[],659.7144,661.715,661.715,663.0485,[],[],[],[],[],[],[],z,663.0486,663.0488,-0.068333308,-0.390000025,0,0,0,,0,112,112,8,1,4,RL,casagity,cursive,casagity_c.png,1.3211,,,,,
,,,,32389,001,2025-12-04_18h49.57.656,HW_LDT_1,2024.2.4,Win32,30.21148036,,,,,,,,,,,,,,,,,,,,,,663.0518,663.2475,663.2476,663.748,,,,,,,,,,,,,,0.8201,1,,,,,,,,,,,,,,z,,,,,,,,,,,,,,,114,0,663.7488,664.5819,z,1,0.8201,,[],[],[],[],[],[],[],664.582,666.5806,666.5806,666.5809,[],[],[],[],[],[],[],,666.5809,666.5811,-0.068333308,-0.390000025,0,0,0,,0,113,113,68,1,4,TL,prosopal,print,prosopal_p.png,,,,,,
,,,,32389,001,2025-12-04_18h49.57.656,HW_LDT_1,2024.2.4,Win32,30.21148036,,,,,,,,,,,,,,,,,,,,,,666.5832,666.7811,666.7811,667.2813,,,,,,,,,,,,,,1.6949,1,,,,,,,,,,,,,,m,,,,,,,,,,,,,,,115,0,667.282,668.9803,m,1,1.6949,,[],[],[],[],[],[],[],668.9804,670.9806,670.9807,670.9809,[],[],[],[],[],[],[],,670.981,670.981,-0.068333308,-0.390000025,0,0,0,,0,114,114,137,1,4,word,RAPIDLY,cursive,rapidly_c.png,,,,,,
,,,,32389,001,2025-12-04_18h49.57.656,HW_LDT_1,2024.2.4,Win32,30.21148036,,,,,,,,,,,,,,,,,,,,,,670.9823,671.1811,671.1813,671.6804,,,,,,,,,,,,,,0.7266,1,,,,,,,,,,,,,,z,,,,,,,,,,,,,,,116,0,671.6812,672.4133,z,1,0.7266,,[],[],[],[],[],[],[],672.4133,674.4137,674.4138,674.414,[],[],[],[],[],[],[],,674.414,674.4143,-0.068333308,-0.390000025,0,0,0,,0,115,115,73,1,4,TL,regilion,print,regilion_p.png,,,,,,
,,,,32389,001,2025-12-04_18h49.57.656,HW_LDT_1,2024.2.4,Win32,30.21148036,,,,,,,,,,,,,,,,,,,,,,674.4175,674.6139,674.614,675.1137,,,,,,,,,,,,,,1.0064,1,,,,,,,,,,,,,,z,,,,,,,,,,,,,,,117,0,675.1148,676.1474,z,1,1.0064,,[],[],[],[],[],[],[],676.1475,678.1487,678.1488,678.1489,[],[],[],[],[],[],[],,678.149,678.1491,-0.068333308,-0.390000025,0,0,0,,0,116,116,33,1,4,RL,pamest,cursive,pamest_c.png,,,,,,
,,,,32389,001,2025-12-04_18h49.57.656,HW_LDT_1,2024.2.4,Win32,30.21148036,,,,,,,,,,,,,,,,,,,,,,678.1509,678.3468,678.3469,678.8473,,,,,,,,,,,,,,1.0503,1,,,,,,,,,,,,,,z,,,,,,,,,,,,,,,118,0,678.8481,679.9151,z,1,1.0503,,[],[],[],[],[],[],[],679.9152,681.9136,681.9137,681.9141,[],[],[],[],[],[],[],,681.9141,681.9144,-0.068333308,-0.390000025,0,0,0,,0,117,117,46,1,4,RL,skofen,cursive,skofen_c.png,,,,,,
,,,,32389,001,2025-12-04_18h49.57.656,HW_LDT_1,2024.2.4,Win32,30.21148036,,,,,,,,,,,,,,,,,,,,,,681.9164,682.1139,682.114,682.6135,,,,,,,,,,,,,,1.9401,1,,,,,,,,,,,,,,z,,,,,,,,,,,,,,,119,0,682.6145,684.5797,z,1,1.9401,,[],[],[],[],[],[],[],684.5798,686.5802,686.5802,686.5806,[],[],[],[],[],[],[],,686.5807,686.5811,-0.068333308,-0.390000025,0,0,0,,0,118,118,30,1,4,RL,nunewical,cursive,nunewical_c.png,,,,,,
,,,,32389,001,2025-12-04_18h49.57.656,HW_LDT_1,2024.2.4,Win32,30.21148036,,,,,,,,,,,,,,,,,,,,,,686.584,686.7797,686.7798,687.2803,,,,,,,,,,,,,,0.7732,1,,,,,,,,,,,,,,z,,,,,,,,,,,,,,,120,0,687.2809,688.0798,z,1,0.7732,,[],[],[],[],[],[],[],688.0799,690.0801,690.0802,690.0805,[],[],[],[],[],[],[],,690.0806,690.0807,-0.068333308,-0.390000025,0,0,0,,0,119,119,24,1,4,RL,marmipal,cursive,marmipal_c.png,,,,,,
,,,,32389,001,2025-12-04_18h49.57.656,HW_LDT_1,2024.2.4,Win32,30.21148036,,,,,,,,,,,,,,,,,,,,,,690.0827,690.2795,690.2796,690.7803,,,,,,,,,,,,,,0.8163,1,,,,,,,,,,,,,,m,,,,,,,,,,,,,,,121,1,690.7811,691.615,m,1,0.8163,,[],[],[],[],[],[],[],691.615,693.6134,693.6136,696.0464,[],[],[],[],[],[],[],m,696.0465,696.0468,-0.068333308,-0.390000025,0,0,0,,0,120,120,125,1,4,word,OPERATOR,print,operator_p.png,2.4168,,,,,
,,,,32389,001,2025-12-04_18h49.57.656,HW_LDT_1,2024.2.4,Win32,30.21148036,,,,,,,,,,,,,,,,,,,,,,696.0486,696.2462,696.2462,696.7465,,,,,,,,,,,,,,0.75,1,,,,,,,,,,,,,,m,,,,,,,,,,,,,,,122,0,696.7475,697.5131,m,1,0.75,,[],[],[],[],[],[],[],697.5133,699.5129,699.5129,699.5132,[],[],[],[],[],[],[],,699.5133,699.5134,-0.068333308,-0.390000025,0,0,0,,0,121,121,80,1,4,word,ACADEMY,print,academy_p.png,,,,,,
,,,,32389,001,2025-12-04_18h49.57.656,HW_LDT_1,2024.2.4,Win32,30.21148036,,,,,,,,,,,,,,,,,,,,,,699.5156,699.7128,699.713,700.2144,,,,,,,,,,,,,,0.639,1,,,,,,,,,,,,,,z,,,,,,,,,,,,,,,123,0,700.2151,700.8794,z,1,0.639,,[],[],[],[],[],[],[],700.8795,702.8792,702.8793,702.8796,[],[],[],[],[],[],[],,702.8797,702.8798,-0.068333308,-0.390000025,0,0,0,,0,122,122,38,1,4,RL,refakive,print,refakive_p.png,,,,,,
,,,,32389,001,2025-12-04_18h49.57.656,HW_LDT_1,2024.2.4,Win32,30.21148036,,,,,,,,,,,,,,,,,,,,,,702.8816,703.0794,703.0795,703.5802,,,,,,,,,,,,,,0.6785,1,,,,,,,,,,,,,,m,,,,,,,,,,,,,,,124,0,703.5809,704.2793,m,1,0.6785,,[],[],[],[],[],[],[],704.2794,706.2795,706.2795,706.2798,[],[],[],[],[],[],[],,706.2799,706.2801,-0.068333308,-0.390000025,0,0,0,,0,123,123,155,1,4,word,STRATEGY,print,strategy_p.png,,,,,,
,,,,32389,001,2025-12-04_18h49.57.656,HW_LDT_1,2024.2.4,Win32,30.21148036,,,,,,,,,,,,,,,,,,,,,,706.2828,706.4794,706.4794,706.9796,,,,,,,,,,,,,,0.6869,1,,,,,,,,,,,,,,z,,,,,,,,,,,,,,,125,0,706.9807,707.6791,z,1,0.6869,,[],[],[],[],[],[],[],707.6793,709.6799,709.68,709.6801,[],[],[],[],[],[],[],,709.6802,709.6802,-0.068333308,-0.390000025,0,0,0,,0,124,124,78,1,4,TL,stragety,print,stragety_p.png,,,,,,
,,,,32389,001,2025-12-04_18h49.57.656,HW_LDT_1,2024.2.4,Win32,30.21148036,,,,,,,,,,,,,,,,,,,,,,709.6836,709.8788,709.8789,710.3794,,,,,,,,,,,,,,0.8745,1,,,,,,,,,,,,,,z,,,,,,,,,,,,,,,126,0,710.3799,711.2786,z,1,0.8745,,[],[],[],[],[],[],[],711.2791,713.2794,713.2794,713.2797,[],[],[],[],[],[],[],,713.2798,713.2799,-0.068333308,-0.390000025,0,0,0,,0,125,125,70,1,4,TL,quatily,print,quatily_p.png,,,,,,
,,,,32389,001,2025-12-04_18h49.57.656,HW_LDT_1,2024.2.4,Win32,30.21148036,,,,,,,,,,,,,,,,,,,,,,713.2819,713.4788,713.4788,713.9793,,,,,,,,,,,,,,1.041,1,,,,,,,,,,,,,,m,,,,,,,,,,,,,,,127,0,713.9803,715.0455,m,1,1.041,,[],[],[],[],[],[],[],715.0456,717.0458,717.0459,717.0462,[],[],[],[],[],[],[],,717.0462,717.0465,-0.068333308,-0.390000025,0,0,0,,0,126,126,81,1,4,word,ADVISORY,cursive,advisory_c.png,,,,,,
,,,,32389,001,2025-12-04_18h49.57.656,HW_LDT_1,2024.2.4,Win32,30.21148036,,,,,,,,,,,,,,,,,,,,,,717.0482,717.246,717.246,717.7459,,,,,,,,,,,,,,0.5873,1,,,,,,,,,,,,,,z,,,,,,,,,,,,,,,128,0,717.7468,718.3456,z,1,0.5873,,[],[],[],[],[],[],[],718.3457,720.3451,720.3452,720.3454,[],[],[],[],[],[],[],,720.3454,720.3456,-0.068333308,-0.390000025,0,0,0,,0,127,127,40,1,4,RL,reconal,print,reconal_p.png,,,,,,
,,,,32389,001,2025-12-04_18h49.57.656,HW_LDT_1,2024.2.4,Win32,30.21148036,,,,,,,,,,,,,,,,,,,,,,720.3475,720.545,720.545,721.0457,,,,,,,,,,,,,,0.7242,1,,,,,,,,,,,,,,m,,,,,,,,,,,,,,,129,1,721.0466,721.7786,m,1,0.7242,,[],[],[],[],[],[],[],721.7786,723.7785,723.7785,725.4792,[],[],[],[],[],[],[],z,725.4793,725.4794,-0.068333308,-0.390000025,0,0,0,,0,128,128,132,1,4,word,PROPOSAL,print,proposal_p.png,1.6978,,,,,
,,,,32389,001,2025-12-04_18h49.57.656,HW_LDT_1,2024.2.4,Win32,30.21148036,,,,,,,,,,,,,,,,,,,,,,725.4825,725.6788,725.6789,726.1786,,,,,,,,,,,,,,0.8956,1,,,,,,,,,,,,,,z,,,,,,,,,,,,,,,130,0,726.1794,727.0794,z,1,0.8956,,[],[],[],[],[],[],[],727.0795,729.0799,729.0799,729.0802,[],[],[],[],[],[],[],,729.0802,729.0803,-0.068333308,-0.390000025,0,0,0,,0,129,129,2,1,4,RL,asiral,cursive,asiral_c.png,,,,,,
,,,,32389,001,2025-12-04_18h49.57.656,HW_LDT_1,2024.2.4,Win32,30.21148036,,,,,,,,,,,,,,,,,,,,,,729.083,729.2787,729.2788,729.7788,,,,,,,,,,,,,,0.9083,0,,,,,,,,,,,,,,m,,,,,,,,,,,,,,,131,0,729.7794,730.7118,z,0,0.9083,,[],[],[],[],[],[],[],730.7119,732.7126,732.7129,732.7131,[],[],[],[],[],[],[],,732.7132,732.7133,-0.068333308,-0.390000025,0,0,0,,0,130,130,159,1,4,word,VETERAN,cursive,veteran_c.png,,,,,,
,,,,32389,001,2025-12-04_18h49.57.656,HW_LDT_1,2024.2.4,Win32,30.21148036,,,,,,,,,,,,,,,,,,,,,,732.716,732.9128,732.9131,733.412,,,,,,,,,,,,,,0.9781,1,,,,,,,,,,,,,,m,,,,,,,,,,,,,,,132,0,733.4134,734.4118,m,1,0.9781,,[],[],[],[],[],[],[],734.4119,736.4116,736.4116,736.4119,[],[],[],[],[],[],[],,736.4119,736.4121,-0.068333308,-0.390000025,0,0,0,,0,131,131,152,1,4,word,SPECIMEN,cursive,specimen_c.png,,,,,,
,,,,32389,001,2025-12-04_18h49.57.656,HW_LDT_1,2024.2.4,Win32,30.21148036,,,,,,,,,,,,,,,,,,,,,,736.4145,736.6112,736.6112,737.1116,,,,,,,,,,,,,,1.2925,1,,,,,,,,,,,,,,z,,,,,,,,,,,,,,,133,0,737.1128,738.413,z,1,1.2925,,[],[],[],[],[],[],[],738.4132,740.4118,740.4119,740.4123,[],[],[],[],[],[],[],,740.4124,740.4126,-0.068333308,-0.390000025,0,0,0,,0,132,132,7,1,4,RL,casena,print,casena_p.png,,,,,,
,,,,32389,001,2025-12-04_18h49.57.656,HW_LDT_1,2024.2.4,Win32,30.21148036,,,,,,,,,,,,,,,,,,,,,,740.4148,740.6131,740.6132,741.1117,,,,,,,,,,,,,,1.9199,1,,,,,,,,,,,,,,m,,,,,,,,,,,,,,,134,0,741.1131,743.0445,m,1,1.9199,,[],[],[],[],[],[],[],743.0447,745.0447,745.0449,745.0453,[],[],[],[],[],[],[],,745.0454,745.0457,-0.068333308,-0.390000025,0,0,0,,0,133,133,142,1,4,word,REMOTE,cursive,remote_c.png,,,,,,
,,,,32389,001,2025-12-04_18h49.57.656,HW_LDT_1,2024.2.4,Win32,30.21148036,,,,,,,,,,,,,,,,,,,,,,745.0488,745.2449,745.245,745.7449,,,,,,,,,,,,,,0.6789,1,,,,,,,,,,,,,,z,,,,,,,,,,,,,,,135,0,745.7462,746.4447,z,1,0.6789,,[],[],[],[],[],[],[],746.4452,748.4446,748.4447,748.4449,[],[],[],[],[],[],[],,748.445,748.4452,-0.068333308,-0.390000025,0,0,0,,0,134,134,76,1,4,TL,setanor,print,setanor_p.png,,,,,,
,,,,32389,001,2025-12-04_18h49.57.656,HW_LDT_1,2024.2.4,Win32,30.21148036,,,,,,,,,,,,,,,,,,,,,,748.4479,748.6451,748.6453,749.1449,,,,,,,,,,,,,,1.1573,1,,,,,,,,,,,,,,z,,,,,,,,,,,,,,,136,1,749.1465,750.313,z,1,1.1573,,[],[],[],[],[],[],[],750.3131,752.3114,752.3115,753.2449,[],[],[],[],[],[],[],z,753.2457,753.2459,-0.068333308,-0.390000025,0,0,0,,0,135,135,12,1,4,RL,conbicer,cursive,conbicer_c.png,0.9069,,,,,
,,,,32389,001,2025-12-04_18h49.57.656,HW_LDT_1,2024.2.4,Win32,30.21148036,,,,,,,,,,,,,,,,,,,,,,753.2486,753.4443,753.4443,753.9447,,,,,,,,,,,,,,0.8212,1,,,,,,,,,,,,,,m,,,,,,,,,,,,,,,137,0,753.9458,754.778,m,1,0.8212,,[],[],[],[],[],[],[],754.7783,756.7778,756.7782,756.7787,[],[],[],[],[],[],[],,756.7787,756.7789,-0.068333308,-0.390000025,0,0,0,,0,136,136,112,1,4,word,LIBERAL,cursive,liberal_c.png,,,,,,
,,,,32389,001,2025-12-04_18h49.57.656,HW_LDT_1,2024.2.4,Win32,30.21148036,,,,,,,,,,,,,,,,,,,,,,756.7816,756.9796,756.9797,757.4783,,,,,,,,,,,,,,0.6867,1,,,,,,,,,,,,,,m,,,,,,,,,,,,,,,138,0,757.4793,758.1779,m,1,0.6867,,[],[],[],[],[],[],[],758.1781,760.1788,760.1788,760.1792,[],[],[],[],[],[],[],,760.1792,760.1793,-0.068333308,-0.390000025,0,0,0,,0,137,137,145,1,4,word,RESUME,print,resume_p.png,,,,,,
,,,,32389,001,2025-12-04_18h49.57.656,HW_LDT_1,2024.2.4,Win32,30.21148036,,,,,,,,,,,,,,,,,,,,,,760.1821,760.3772,760.3772,760.878,,,,,,,,,,,,,,0.6895,1,,,,,,,,,,,,,,z,,,,,,,,,,,,,,,139,0,760.879,761.5792,z,1,0.6895,,[],[],[],[],[],[],[],761.5793,763.5785,763.5785,763.5788,[],[],[],[],[],[],[],,763.5789,763.579,-0.068333308,-0.390000025,0,0,0,,0,138,138,62,1,4,TL,locigal,print,locigal_p.png,,,,,,
,,,,32389,001,2025-12-04_18h49.57.656,HW_LDT_1,2024.2.4,Win32,30.21148036,,,,,,,,,,,,,,,,,,,,,,763.5817,763.7777,763.7778,764.278,,,,,,,,,,,,,,0.5514,1,,,,,,,,,,,,,,m,,,,,,,,,,,,,,,140,0,764.2788,764.8446,m,1,0.5514,,[],[],[],[],[],[],[],764.845,766.8441,766.8442,766.8443,[],[],[],[],[],[],[],,766.8445,766.8445,-0.068333308,-0.390000025,0,0,0,,0,139,139,110,1,4,word,HERITAGE,print,heritage_p.png,,,,,,
,,,,32389,001,2025-12-04_18h49.57.656,HW_LDT_1,2024.2.4,Win32,30.21148036,,,,,,,,,,,,,,,,,,,,,,766.8476,767.0442,767.0442,767.5458,,,,,,,,,,,,,,0.52,1,,,,,,,,,,,,,,m,,,,,,,,,,,,,,,141,0,767.5469,768.079,m,1,0.52,,[],[],[],[],[],[],[],768.0792,770.0771,770.0771,770.0776,[],[],[],[],[],[],[],,770.0777,770.0779,-0.068333308,-0.390000025,0,0,0,,0,140,140,146,1,4,word,RETIRE,print,retire_p.png,,,,,,
,,,,32389,001,2025-12-04_18h49.57.656,HW_LDT_1,2024.2.4,Win32,30.21148036,,,,,,,,,,,,,,,,,,,,,,770.0801,770.2781,770.2783,770.779,,,,,,,,,,,,,,1.2234,1,,,,,,,,,,,,,,z,,,,,,,,,,,,,,,142,1,770.7801,772.011,z,1,1.2234,,[],[],[],[],[],[],[],772.0112,774.0107,774.0108,774.7772,[],[],[],[],[],[],[],z,774.7777,774.7781,-0.068333308,-0.390000025,0,0,0,,0,141,141,52,1,4,TL,cagetory,cursive,cagetory_c.png,0.7524,,,,,
,,,,32389,001,2025-12-04_18h49.57.656,HW_LDT_1,2024.2.4,Win32,30.21148036,,,,,,,,,,,,,,,,,,,,,,774.7805,774.9772,774.9773,775.477,,,,,,,,,,,,,,1.2207,1,,,,,,,,,,,,,,m,,,,,,,,,,,,,,,143,0,775.478,776.7103,m,1,1.2207,,[],[],[],[],[],[],[],776.7104,778.7108,778.7109,778.7115,[],[],[],[],[],[],[],,778.7115,778.7116,-0.068333308,-0.390000025,0,0,0,,0,142,142,91,1,4,word,CARDINAL,cursive,cardinal_c.png,,,,,,
,,,,32389,001,2025-12-04_18h49.57.656,HW_LDT_1,2024.2.4,Win32,30.21148036,,,,,,,,,,,,,,,,,,,,,,778.7149,778.9099,778.91,779.4105,,,,,,,,,,,,,,0.8384,1,,,,,,,,,,,,,,z,,,,,,,,,,,,,,,144,0,779.4119,780.2765,z,1,0.8384,,[],[],[],[],[],[],[],780.2767,782.2782,782.2782,782.2788,[],[],[],[],[],[],[],,782.2788,782.2805,-0.068333308,-0.390000025,0,0,0,,0,143,143,1,1,4,RL,afaneur,cursive,afaneur_c.png,,,,,,
,,,,32389,001,2025-12-04_18h49.57.656,HW_LDT_1,2024.2.4,Win32,30.21148036,,,,,,,,,,,,,,,,,,,,,,782.2829,782.4776,782.4776,782.9773,,,,,,,,,,,,,,0.6755,1,,,,,,,,,,,,,,z,,,,,,,,,,,,,,,145,0,782.9785,783.6766,z,1,0.6755,,[],[],[],[],[],[],[],783.6767,785.6782,785.6783,785.6795,[],[],[],[],[],[],[],,785.6797,785.6798,-0.068333308,-0.390000025,0,0,0,,0,144,144,66,1,4,TL,opmital,print,opmital_p.png,,,,,,
,,,,32389,001,2025-12-04_18h49.57.656,HW_LDT_1,2024.2.4,Win32,30.21148036,,,,,,,,,,,,,,,,,,,,,,785.6832,785.877,785.8781,786.377,,,,,,,,,,,,,,0.6173,1,,,,,,,,,,,,,,m,,,,,,,,,,,,,,,146,0,786.3784,787.0107,m,1,0.6173,,[],[],[],[],[],[],[],787.011,789.0101,789.0102,789.0108,[],[],[],[],[],[],[],,789.0109,789.0111,-0.068333308,-0.390000025,0,0,0,,0,145,145,117,1,4,word,MARINE,print,marine_p.png,,,,,,
,,,,32389,001,2025-12-04_18h49.57.656,HW_LDT_1,2024.2.4,Win32,30.21148036,,,,,,,,,,,,,,,,,,,,,,789.0137,789.2101,789.2103,789.7098,,,,,,,,,,,,,,0.5374,1,,,,,,,,,,,,,,z,,,,,,,,,,,,,,,147,0,789.7127,790.2762,z,1,0.5374,,[],[],[],[],[],[],[],790.2764,792.278,792.2781,792.2791,[],[],[],[],[],[],[],,792.2792,792.2796,-0.068333308,-0.390000025,0,0,0,,0,146,146,29,1,4,RL,motide,print,motide_p.png,,,,,,
,,,,32389,001,2025-12-04_18h49.57.656,HW_LDT_1,2024.2.4,Win32,30.21148036,,,,,,,,,,,,,,,,,,,,,,792.2815,792.4762,792.4763,792.9766,,,,,,,,,,,,,,4.4073,1,,,,,,,,,,,,,,z,,,,,,,,,,,,,,,148,0,792.9781,797.4102,z,1,4.4073,,[],[],[],[],[],[],[],797.4103,799.4099,799.41,799.4104,[],[],[],[],[],[],[],,799.4106,799.4107,-0.068333308,-0.390000025,0,0,0,,0,147,147,56,1,4,TL,donimant,cursive,donimant_c.png,,,,,,
,,,,32389,001,2025-12-04_18h49.57.656,HW_LDT_1,2024.2.4,Win32,30.21148036,,,,,,,,,,,,,,,,,,,,,,799.4132,799.6095,799.6096,800.1099,,,,,,,,,,,,,,1.7171,1,,,,,,,,,,,,,,z,,,,,,,,,,,,,,,149,0,800.1111,801.8446,z,1,1.7171,,[],[],[],[],[],[],[],801.8449,803.843,803.8431,803.8433,[],[],[],[],[],[],[],,803.8434,803.8436,-0.068333308,-0.390000025,0,0,0,,0,148,148,49,1,4,RL,vesofity,cursive,vesofity_c.png,,,,,,
,,,,32389,001,2025-12-04_18h49.57.656,HW_LDT_1,2024.2.4,Win32,30.21148036,,,,,,,,,,,,,,,,,,,,,,803.8459,804.0433,804.0434,804.5431,,,,,,,,,,,,,,1.0565,1,,,,,,,,,,,,,,m,,,,,,,,,,,,,,,150,0,804.5438,805.6115,m,1,1.0565,,[],[],[],[],[],[],[],805.6116,807.6093,807.6094,807.6102,[],[],[],[],[],[],[],,807.6103,807.6106,-0.068333308,-0.390000025,0,0,0,,0,149,149,116,1,4,word,MARGINAL,cursive,marginal_c.png,,,,,,
,,,,32389,001,2025-12-04_18h49.57.656,HW_LDT_1,2024.2.4,Win32,30.21148036,,,,,,,,,,,,,,,,,,,,,,807.6134,807.8095,807.8099,808.3099,,,,,,,,,,,,,,0.5586,1,,,,,,,,,,,,,,z,,,,,,,,,,,,,,,151,1,808.3108,808.8761,z,1,0.5586,,[],[],[],[],[],[],[],808.8764,810.8753,810.8754,811.6428,[],[],[],[],[],[],[],z,811.6429,811.6431,-0.068333308,-0.390000025,0,0,0,,0,150,150,11,1,4,RL,clisimal,print,clisimal_p.png,0.7546,,,,,
,,,,32389,001,2025-12-04_18h49.57.656,HW_LDT_1,2024.2.4,Win32,30.21148036,,,,,,,,,,,,,,,,,,,,,,811.6459,811.8432,811.8433,812.3433,,,,,,,,,,,,,,0.7063,1,,,,,,,,,,,,,,m,,,,,,,,,,,,,,,152,0,812.3446,813.0756,m,1,0.7063,,[],[],[],[],[],[],[],813.0761,815.0754,815.0755,815.0759,[],[],[],[],[],[],[],,815.076,815.0761,-0.068333308,-0.390000025,0,0,0,,0,151,151,147,1,4,word,ROMANTIC,print,romantic_p.png,,,,,,
,,,,32389,001,2025-12-04_18h49.57.656,HW_LDT_1,2024.2.4,Win32,30.21148036,,,,,,,,,,,,,,,,,,,,,,815.0784,815.2768,815.2769,815.7769,,,,,,,,,,,,,,0.8059,1,,,,,,,,,,,,,,z,,,,,,,,,,,,,,,153,0,815.7779,816.6084,z,1,0.8059,,[],[],[],[],[],[],[],816.6087,818.6087,818.6087,818.609,[],[],[],[],[],[],[],,818.6091,818.6094,-0.068333308,-0.390000025,0,0,0,,0,152,152,17,1,4,RL,denficy,cursive,denficy_c.png,,,,,,
,,,,32389,001,2025-12-04_18h49.57.656,HW_LDT_1,2024.2.4,Win32,30.21148036,,,,,,,,,,,,,,,,,,,,,,818.612,818.8111,818.8111,819.3093,,,,,,,,,,,,,,1.5576,1,,,,,,,,,,,,,,m,,,,,,,,,,,,,,,154,1,819.311,820.876,m,1,1.5576,,[],[],[],[],[],[],[],820.8761,822.876,822.8765,823.4763,[],[],[],[],[],[],[],z,823.4764,823.4768,-0.068333308,-0.390000025,0,0,0,,0,153,153,104,1,4,word,DOMINANT,cursive,dominant_c.png,0.5767,,,,,
,,,,32389,001,2025-12-04_18h49.57.656,HW_LDT_1,2024.2.4,Win32,30.21148036,,,,,,,,,,,,,,,,,,,,,,823.4804,823.6759,823.676,824.1766,,,,,,,,,,,,,,0.8592,1,,,,,,,,,,,,,,z,,,,,,,,,,,,,,,155,0,824.1777,825.0426,z,1,0.8592,,[],[],[],[],[],[],[],825.0428,827.0422,827.0425,827.043,[],[],[],[],[],[],[],,827.043,827.0432,-0.068333308,-0.390000025,0,0,0,,0,154,154,41,1,4,RL,rebicent,cursive,rebicent_c.png,,,,,,
,,,,32389,001,2025-12-04_18h49.57.656,HW_LDT_1,2024.2.4,Win32,30.21148036,,,,,,,,,,,,,,,,,,,,,,827.0446,827.2426,827.2434,827.742,,,,,,,,,,,,,,0.64,0,,,,,,,,,,,,,,z,,,,,,,,,,,,,,,156,0,827.7437,828.4096,m,0,0.64,,[],[],[],[],[],[],[],828.4099,830.4082,830.4083,830.4086,[],[],[],[],[],[],[],,830.4087,830.4088,-0.068333308,-0.390000025,0,0,0,,0,155,155,71,1,4,TL,racidal,print,racidal_p.png,,,,,,
,,,,32389,001,2025-12-04_18h49.57.656,HW_LDT_1,2024.2.4,Win32,30.21148036,,,,,,,,,,,,,,,,,,,,,,830.4114,830.6079,830.6079,831.1078,,,,,,,,,,,,,,2.7068,1,,,,,,,,,,,,,,m,,,,,,,,,,,,,,,157,0,831.1085,833.8412,m,1,2.7068,,[],[],[],[],[],[],[],833.8413,835.8415,835.8415,835.8424,[],[],[],[],[],[],[],,835.8425,835.8426,-0.068333308,-0.390000025,0,0,0,,0,156,156,144,1,4,word,RESIDENT,cursive,resident_c.png,,,,,,
,,,,32389,001,2025-12-04_18h49.57.656,HW_LDT_1,2024.2.4,Win32,30.21148036,,,,,,,,,,,,,,,,,,,,,,835.8451,836.0415,836.0415,836.5417,,,,,,,,,,,,,,1.5453,0,,,,,,,,,,,,,,m,,,,,,,,,,,,,,,158,0,836.5427,838.1084,z,0,1.5453,,[],[],[],[],[],[],[],838.1087,840.1089,840.1089,840.1092,[],[],[],[],[],[],[],,840.1093,840.1094,-0.068333308,-0.390000025,0,0,0,,0,157,157,102,1,4,word,DENSITY,cursive,density_c.png,,,,,,
,,,,32389,001,2025-12-04_18h49.57.656,HW_LDT_1,2024.2.4,Win32,30.21148036,,,,,,,,,,,,,,,,,,,,,,840.1119,840.3082,840.3083,840.8082,,,,,,,,,,,,,,0.8079,1,,,,,,,,,,,,,,m,,,,,,,,,,,,,,,159,0,840.8095,841.6432,m,1,0.8079,,[],[],[],[],[],[],[],841.6433,843.6416,843.6421,843.6426,[],[],[],[],[],[],[],,843.6426,843.6428,-0.068333308,-0.390000025,0,0,0,,0,158,158,131,1,4,word,POPULAR,print,popular_p.png,,,,,,
,,,,32389,001,2025-12-04_18h49.57.656,HW_LDT_1,2024.2.4,Win32,30.21148036,,,,,,,,,,,,,,,,,,,,,,843.6452,843.841,843.8413,844.3413,,,,,,,,,,,,,,2.1385,1,,,,,,,,,,,,,,z,,,,,,,,,,,,,,,160,0,844.3437,846.5081,z,1,2.1385,,[],[],[],[],[],[],[],846.5086,848.5081,848.5085,848.509,[],[],[],[],[],[],[],,848.5091,848.5092,-0.068333308,-0.390000025,0,0,0,,0,159,159,32,1,4,RL,patisic,cursive,patisic_c.png,,,,,,
,,,,32389,001,2025-12-04_18h49.57.656,HW_LDT_1,2024.2.4,Win32,30.21148036,,,,,,,,,,,,,,,,,,,,,,,,,,,,,,,,,,,,,,,,,,,,,,,,,,,,,,,,,,,,,,,,,,,,,,,,,,,,,,,,,,,,,,,,,,,,,,,,,,,,,,,,,,,,,,,,,,,,,,848.51,853.5082
